DataType=double
version=3
OpenSimVersion=4.2-2021-02-17-5e51ba2f1
endheader
time,thorax_q1,thorax_q2,thorax_q3,thorax_q4,thorax_ax,thorax_ay,thorax_az,thorax_gx,thorax_gy,thorax_gz,thorax_mx,thorax_my,thorax_mz,thorax_barometer,thorax_linAcc_x,thorax_linAcc_y,thorax_linAcc_z,thorax_altitude,humerus_q1,humerus_q2,humerus_q3,humerus_q4,humerus_ax,humerus_ay,humerus_az,humerus_gx,humerus_gy,humerus_gz,humerus_mx,humerus_my,humerus_mz,humerus_barometer,humerus_linAcc_x,humerus_linAcc_y,humerus_linAcc_z,humerus_altitude,radius_q1,radius_q2,radius_q3,radius_q4,radius_ax,radius_ay,radius_az,radius_gx,radius_gy,radius_gz,radius_mx,radius_my,radius_mz,radius_barometer,radius_linAcc_x,radius_linAcc_y,radius_linAcc_z,radius_altitude
1613732333.403044,-0.06478761752275738,0.09408442200221626,-0.654406601630266,-0.7474641094780416,-0.05504864388335796,0.9785022115004325,0.1358309211478391,4.298355085565173,-0.2989595717591498,-0.2658169106650971,-14.73327697603355,-37.48988351541725,-8.576881045492332,1020.13010833203,0.0006176114366085703,-0.008639481010792304,0.01382717486407413,-59.06453988582602,0.5114668652184664,-0.4072874726180001,-0.3257826871420618,-0.6829232308576304,0.2034911272618106,0.8425944316203956,0.4318483908387786,-0.7854259833276911,1.998540673108185,0.02445654856795118,-10.18084144592285,-38.97952270507812,-1.620208740234375,1019.973510742188,-0.01879475520628043,-0.01609732822404457,-0.01920682895348107,-57.72442245483398,0.752562599754739,0.463860153575286,-0.1780032256412896,0.4322013530667519,0.1152318000563357,-0.8373070334953319,0.5401428151211491,-1.584542384692058,6.650022917102719,-1.514032068895752,3.731551170349121,37.29536437988281,-1.294497489929199,1020.013244628906,-0.01736435624588925,0.01185379738149866,0.03892543783655313,-58.06327056884766
1613732333.428044,-0.06450813421565812,0.09409149804464349,-0.654907065813324,-0.7470490002981079,-0.06311396253492153,0.9808683446091369,0.1287902573737317,2.744754654450122,-0.239606179712516,-0.3821564712329235,-14.93900680541992,-37.69740676879883,-8.825725555419922,1020.132019042969,-0.007214841416859191,-0.006425654632483382,0.008095230080022997,-59.07981491088867,0.5115770851605322,-0.4070363212382445,-0.3257248850823644,-0.6830179800222099,0.2026124204869458,0.8439840149876334,0.4402330879767834,-1.589871685252599,-0.4015194963056796,0.5411988215120642,-10.00815141102015,-38.81061303544308,-1.624306533889157,1019.975122163348,-0.01939589586569755,-0.01452389978598541,-0.01130487468895173,-57.73988202659457,0.7515837043579735,0.4626348824212073,-0.1801320041490524,0.4343293131431056,0.1265195469018908,-0.8445589313571989,0.5042295926426399,0.3665602276061422,9.867701342938906,-1.5022421822659,3.732369331398655,37.47887853302048,-1.513991353022556,1020.013089619116,-0.004141332925586247,0.004460454234057859,0.00227059638629775,-58.06327056884766
1613732333.453044,-0.06437252637524872,0.09415475194799469,-0.6552569321442911,-0.7467458630037713,-0.05678085127746511,0.9841405087576152,0.1201443488223053,2.294027467044292,0.0213863117762077,-0.2555167406681267,-15.46663408513218,-37.1586636709622,-8.39769670463202,1020.13284257307,-0.0007123017977017187,-0.00326110616304504,0.0003869166225874483,-59.08771565279351,0.5118638294149511,-0.4071028493593564,-0.3252447512249028,-0.682992242292133,0.218018564579778,0.8422682093957657,0.451241846403669,-2.225057193311428,-2.446423399232974,1.004157870823572,-9.814550399780273,-38.62125015258789,-1.628900527954102,1019.976928710938,-0.004363198571796855,-0.0158699595774596,-0.0008109833076441293,-57.7572135925293,0.7508603585924123,0.4615964852186836,-0.1816003188629949,0.436071844702315,0.1265146164620654,-0.8499949497874231,0.4797160055844011,2.312345547617465,4.132933662060409,-1.116691073051258,3.733161926269531,37.65665817260742,-1.726626396179199,1020.012812394654,-0.003838926909699271,-0.001941191557468901,-0.02494956502793334,-58.06327056884766
1613732333.478044,-0.0641522839842831,0.09411517822396605,-0.6556880390045945,-0.7463913181624203,-0.05301528443905563,0.9885435673845443,0.1239505087580942,2.710948832944446,0.2933160866287499,-0.2490846231290266,-16.033935546875,-36.57941055297852,-7.937482833862305,1020.133728027344,0.00316036959959082,0.001010045746489451,0.005304693149033791,-59.09621047973633,0.5122641956609607,-0.4074587293790817,-0.3243270198395923,-0.6829163629893414,0.2387752898970047,0.8492703034029352,0.444995453677246,-2.059632049177298,-1.307369903900217,1.203634625100014,-9.814550399780273,-38.62125015258789,-1.628900527954102,1019.976080519997,0.01529330070688522,-0.008257459372481136,-0.007667661887181145,-57.74636507893847,0.7504649290239083,0.4609889673321561,-0.1821704315119076,0.4371559887121083,0.1284597438836167,-0.8556505868127807,0.4740051802836642,1.61041363979188,1.21470127361757,-0.4568597186205655,3.566151310062685,37.31752096012156,-1.731230283468516,1020.010864257812,-0.0007262520053524461,-0.007335101417739361,-0.0295134234079488,-58.046875
1613732333.503044,-0.06392382152298641,0.09401229885744272,-0.6559212403670095,-0.7462189678522922,-0.05435610394100827,0.9825959525215353,0.1267012270107648,1.087779949199734,0.3575174174458077,-0.131168931722641,-15.54588854009992,-36.57955089403278,-7.739114980797267,1020.131164550781,0.003570636742500239,-0.007073364663852875,0.009905206259161104,-59.07434844970703,0.5124095784751799,-0.4076005775138272,-0.3238198194141579,-0.6829633256105357,0.2326645211328708,0.851196665022746,0.4470945305781154,-0.8313710770481373,1.192149620199956,0.8736204159562957,-9.821769714355469,-38.25181579589844,-2.065746307373047,1019.97607421875,0.006391991189249871,-0.004195216278622586,-0.003155010493324201,-57.74628448486328,0.7498453299852987,0.460977332919428,-0.1826128976375289,0.4380461115454319,0.135036925836779,-0.8552295293004468,0.4807869828246335,-0.377513956646652,0.5518136143530457,-1.268590455103596,3.379059791564941,36.93760681152344,-1.736387729644775,1020.010437011719,0.005479529225819529,-0.006791253605634965,-0.02243135236585489,-58.04140853881836
1613732333.528044,-0.06375669958139575,0.09397316290783436,-0.6560431791512764,-0.7461310036897787,-0.05423395869928049,0.9790741734150462,0.1120889594797105,0.07956739713917144,0.7314677187661291,-0.3685530938993253,-14.93286514282227,-36.57972717285156,-7.489950180053711,1020.131164550781,0.002276899881714512,-0.008685704888237505,-0.005597608315724804,-59.07434844970703,0.5124553818918738,-0.4073825823534924,-0.323730461191198,-0.6831013834766646,0.2031258095461459,0.8408315613219978,0.4489889698531886,-0.5278718615679505,1.572211833933538,-0.001557402868504587,-9.821769714355469,-38.25181579589844,-2.065746307373047,1019.971029673261,-0.02090363014077063,-0.01596034971885037,-0.004366205667485226,-57.70397168172703,0.7492532903030762,0.4609954178075668,-0.1830435100972926,0.438859509010529,0.124261378372062,-0.8488683150534606,0.4932030268281457,-0.9882453627781265,-0.4115932702187591,-0.280528019636441,3.005245106434704,37.30740719261789,-1.740660950720149,1020.010437011719,-0.005631728653748841,-0.0002741870978301957,-0.009668231597840768,-58.04140853881836
1613732333.553044,-0.06367849126295008,0.09411037563127789,-0.6561849152240479,-0.7459957269477862,-0.06056002174291933,0.9793861046496458,0.1128772341075898,1.035990232394458,1.170640313265892,-0.5072432044629213,-15.08906734677303,-36.73750101489102,-7.865761515941535,1020.134643554688,-0.003909584827820164,-0.00827976785923676,-0.004471134265608164,-59.10167694091797,0.5125716021451256,-0.4073428874823626,-0.3236163417508416,-0.683091922381012,0.2241062967964414,0.8382241332345391,0.4427308990967224,-0.6413961375552725,-0.4357379182927112,0.1957555613152379,-10.1862907409668,-38.24582672119141,-2.061386108398438,1019.97168160134,0.0001120401996465044,-0.01858094526196764,-0.0110384409775969,-57.70992789033471,0.748485675756408,0.4609713794010207,-0.1839620331963662,0.439809657886585,0.1289885965261686,-0.8320151569367199,0.503353318397991,-1.746597467648814,2.007018406012957,-0.06923488796834004,2.643117904663086,37.66564559936523,-1.744800567626953,1020.010135300392,-0.0006661408914831,0.01698959013568676,0.001109740448239205,-58.04140853881836
1613732333.578044,-0.06366849785532365,0.09431623555184972,-0.6564800044039228,-0.7457109091052181,-0.05300553188842808,0.9748645219971945,0.12767715765304,2.886476542311078,0.6505352692838523,-0.2771429498897573,-15.30403900146484,-36.95463562011719,-8.382967948913574,1020.132360553739,0.003873101201181582,-0.01289175864505628,0.01117811263899137,-59.08265967574807,0.5126437816020236,-0.4073145545959452,-0.3235229821520429,-0.683098884753324,0.2164092065666736,0.8400012382643902,0.4493912356653023,-0.1622209340828202,1.312220849729899,0.04624493984421714,-10.1862907409668,-38.24582672119141,-2.061386108398438,1019.97265625,-0.007600959936788484,-0.01671083100604171,-0.004544644011946798,-57.71895599365234,0.7480424449238242,0.4605770289151225,-0.1842595799379925,0.4408509928908966,0.124566773542378,-0.8469678040974213,0.5064530815543444,2.595826000440091,-1.612747541521121,-0.8020390868186951,2.812298648734015,37.66425129405029,-1.741979763641865,1020.009989741128,-0.0054170107973194,0.001684923773412631,0.003703699245960534,-58.03886504173428
1613732333.603045,-0.06348128895842456,0.09428439711584879,-0.6567959770919781,-0.7454526205180603,-0.05328902250113954,0.9858403462209607,0.1260033862975865,1.792896267302484,-0.5189101368067781,-0.2626507149195554,-14.96556269850722,-37.12619087188242,-8.381865763049468,1020.132019042969,0.003698754104961755,-0.002008199810378835,0.01031954089965248,-59.07981491088867,0.5125807355798798,-0.4071009604310431,-0.323699617112655,-0.6831898374150642,0.2118547755614868,0.8482108725795796,0.4542482914326772,-0.009304869297803095,-0.009569190640730862,0.1264782024602165,-10.53459930419922,-38.61444091796875,-1.187665939331055,1019.972117291413,-0.01179854868274085,-0.008530914697072461,0.0001936544173830442,-57.71436040927104,0.7476855437446748,0.4600425638301135,-0.1845882127750235,0.4418759055787024,0.1180133148143929,-0.8593467347231897,0.4925857809975114,0.8798682520199259,0.9975486987343847,-0.5106913725464524,3.006465911865234,37.66265106201172,-1.738742351531982,1020.009826660156,-0.01208202201506578,-0.01115232951396141,-0.01090279251599214,-58.03594589233398
1613732333.628045,-0.06331752279059932,0.09420039972198885,-0.6569304590690297,-0.7453586696926033,-0.05864678101477126,0.9827694143628485,0.1171532494128813,0.2687048564384781,-0.8282986158709309,-0.2424073186310095,-14.57098770141602,-37.32617950439453,-8.380580902099609,1020.135132067048,-0.001604045656753487,-0.005114457916717243,0.001790068090202527,-59.10968048565094,0.5126098999669011,-0.4071370387047381,-0.3236090249010469,-0.6831893730690685,0.2287277868612508,0.8411433130727299,0.4494059940180262,-0.151920884847641,-0.7464033184025496,0.1620016396045685,-10.53459930419922,-38.61444091796875,-1.187665939331055,1019.971374511719,0.004951979395526693,-0.01553528659402518,-0.004706775467359911,-57.70802688598633,0.7472113518247674,0.4596276301725924,-0.1854010098377384,0.4427684601876606,0.1314237700505237,-0.8510977269851295,0.496488618648835,-0.1163780091878234,1.849493609416784,0.5137370910533702,3.379418781612904,37.47719793520068,-1.95300000892682,1020.009672344143,0.001912223044638066,-0.002910138794383808,-0.007161017465324619,-58.03318170674683
1613732333.653045,-0.06332943714029524,0.09428106720000655,-0.6570186723775667,-0.7452696954807513,-0.05962117237569885,0.9795923069366412,0.1076261072850261,0.7513774590511622,0.214042016104495,-0.009033857844769955,-14.57098770141602,-37.32617950439453,-8.380580902099609,1020.135437011719,-0.002502053303407071,-0.008318608873562509,-0.007475830437755449,-59.11260604858398,0.5127293297263222,-0.4073065942030205,-0.3234449562657815,-0.6830763733615045,0.2251283136185819,0.8410355233146644,0.447391629543466,0.1047328467795338,0.2367725961496353,0.1300374099346912,-10.17007827758789,-38.62043380737305,-1.192024230957031,1019.970520019531,0.00112266832835142,-0.0156170839132775,-0.006657713123100979,-57.69709777832031,0.746702833074677,0.4593542764307281,-0.1862508943871618,0.4435528225666678,0.1308382281123612,-0.8413408651985257,0.4970158384191105,-0.7496484618271488,2.66666774391881,-0.1218158382162641,3.7440185546875,37.2958984375,-2.162458896636963,1020.009733745375,0.0001569168555374798,0.002266995205530807,-0.01146219738279158,-58.03047943115234
1613732333.678045,-0.0633383222442999,0.09436841576921358,-0.6571857168582962,-0.7451105900194829,-0.05191122454629036,0.9768608436231411,0.1182336202557968,1.654779012948744,-0.02321799762434174,-0.06714945442462961,-14.57098770141602,-37.32617950439453,-8.380580902099609,1020.135437011719,0.005275000701780693,-0.01110242980213533,0.003602292450453458,-59.11260604858398,0.5128043352362026,-0.4073729541061653,-0.3233453435600348,-0.6830276548266184,0.2244173544825954,0.847732919697205,0.4454376203569265,0.2334157725008853,0.4852462708950043,0.2168481294117537,-10.18300044365606,-37.95934521160495,-1.973748721758533,1019.970520019531,0.0003074398863267603,-0.008881431636558881,-0.008632389283419164,-57.69709777832031,0.7462274071602426,0.4592169254907121,-0.1866955780662906,0.4443074047028491,0.1352522900167892,-0.8426901500002247,0.4965829432506126,-0.2835128746055292,0.4180036397260189,-0.9257016442095775,3.563265999102636,37.63599434081595,-1.756132285522848,1020.013122558594,0.006256501698768474,0.005700153583193908,-0.006858890681551306,-58.06327056884766
1613732333.703045,-0.06322187993545637,0.09435389292801301,-0.6574252734324602,-0.7449109549072528,-0.05440625721392135,0.9798914789313375,0.1214467365560015,1.715888510621332,-0.5785316824913025,-0.1801100364002005,-15.01138164348522,-37.1767635432437,-8.381491947071281,1020.136170739213,0.002843203920500066,-0.008142196176340901,0.007437665194912975,-59.11917596685284,0.5127450683759689,-0.4072633255375525,-0.3234954021383568,-0.6830664598848922,0.2115717973336911,0.8587520503980415,0.4510180174428584,0.2285926944955706,0.7134578919547232,0.02291048592528341,-10.18452072143555,-37.88156890869141,-2.065717697143555,1019.967956542969,-0.01230512113087465,0.002068624108905802,-0.00303637446579751,-57.67523574829102,0.7455146217265158,0.4591851229382607,-0.1871855137951067,0.4453296920820021,0.1202052948211816,-0.8695265006938226,0.5009764692257636,-0.3227818043761104,0.9330528777983585,-1.449646970176784,3.35914632596568,38.01159835900971,-1.302196913025359,1020.013118831924,-0.009235198283764318,-0.02102053615365251,-0.002158776515569708,-58.06327056884766
1613732333.728045,-0.06308560568445075,0.09437382210409162,-0.6576725005645409,-0.744701697896835,-0.05992882398843978,0.9850688398403287,0.1175889765102378,1.763819238651507,-0.1409303603986428,-0.3650695311099754,-15.67001342773438,-36.95330429077148,-8.382854461669922,1020.137268066406,-0.00254164378782656,-0.003034544994330972,0.00423539076306758,-59.12900161743164,0.5128361134919776,-0.4071327649661461,-0.32358651428598,-0.6830327924211462,0.220622306114473,0.8486068180017647,0.4510285217148094,-0.9438076390286718,-1.878867618506762,-0.5680564787840718,-10.17972872364801,-37.88640831013074,-2.060142678557964,1019.971374511719,-0.002897697990127757,-0.008119342641944598,-0.003120238559963915,-57.70802688598633,0.7452654514806469,0.4587398412528963,-0.1877358875873333,0.4459732086639908,0.1391497827120793,-0.840911770631763,0.4977566879560236,-0.1821675850287439,-0.2466236632013218,0.1302287837074187,3.370903066886809,37.46342075762288,-1.634608043018432,1020.01288705783,0.0102408308986251,0.007434215461453335,-0.005781491615625361,-58.06327056884766
1613732333.753045,-0.06298146272644746,0.09446236734970288,-0.6579338274507196,-0.7444684371644963,-0.05999171617123644,0.985262165981729,0.1125008909226492,1.809937810395727,0.3514739624587397,-0.4436373202659346,-15.18327095584813,-37.11634636626388,-8.184062805842085,1020.137268066406,-0.002413307780859776,-0.002914876776166188,-0.0001342314687813803,-59.12900161743164,0.5132170590261947,-0.4074432053937772,-0.3231752330415024,-0.6827562076623817,0.2414093410637153,0.842686359228414,0.4518676478699277,-0.04512710744891707,0.8400580979896719,-0.3292303260985401,-9.812778472900391,-38.25698852539062,-1.633232116699219,1019.970270866508,0.01751627679921764,-0.01392842443198443,-0.002307289677393432,-57.69861469744158,0.7448894408660188,0.4587512578408879,-0.1878296548823599,0.4465501331621904,0.1477563240773882,-0.8212108905297505,0.4912342680155424,-0.2616505679866032,-1.897707333968312,-1.084680026389142,3.37443733215332,37.29862976074219,-1.734536170959473,1020.012456146898,0.01830812006017485,0.02710717012469636,-0.01221296670804175,-58.05787837024629
1613732333.778045,-0.06287675006730215,0.09455568395909734,-0.6581980394474086,-0.744231867089765,-0.05313757458374009,0.9777791561834466,0.1152995970757254,1.299130013633358,0.2648584971711065,-0.3754390776157379,-14.56782913208008,-37.3224983215332,-7.932708740234375,1020.133408497791,0.004638920642065308,-0.01047146499904852,0.003392813041856465,-59.0949314113847,0.5133315910996652,-0.4072608420617362,-0.3232745075090077,-0.6827319208151335,0.2050252186809889,0.8435536016755387,0.4548060318251831,0.03691781387606474,1.688905352104797,-0.5131386438462074,-10.18111173494943,-38.2459814873291,-2.055449457078119,1019.968811035156,-0.01842462126844992,-0.01308727019847377,0.0004625651694619868,-57.68616485595703,0.7441792564520783,0.4589317978842987,-0.1879843525506814,0.4474823612826127,0.1180247642527536,-0.8509958894060549,0.5065678538689635,-1.859946295186422,0.08137963182773611,-2.270425796508789,3.196906594440238,37.80133761610759,-1.533843654100644,1020.012451171875,-0.01247346268398174,-0.002572114645407795,0.003566623839626271,-58.05780410766602
1613732333.803045,-0.06282227957376173,0.09460208618566175,-0.6583950698175238,-0.744056266626161,-0.05286216978952023,0.9746401761165455,0.1096451674480872,1.182928204536438,0.4292876350755462,-0.2217027180911369,-14.74548832487184,-36.96587122278361,-7.935176612495128,1020.132934570312,0.004996846294486595,-0.01366792190556924,-0.00172716048529791,-59.09074783325195,0.5134436394188403,-0.4070406959877587,-0.3234289974875061,-0.6827057691653682,0.2131926151861027,0.8434820556124447,0.4479018094300563,-0.5245458457811955,-1.372483939052635,-0.2381754434784574,-10.1862907409668,-38.24582672119141,-2.061386108398438,1019.967457800033,-0.01214729895780688,-0.01339851707523567,-0.007590813075493724,-57.67511644876292,0.7433741241595189,0.4587919977328673,-0.1888750454189453,0.4485877475508546,0.1089757677237005,-0.8575321413287175,0.5046474527879101,-0.4296991430903667,0.500907329017657,-0.119570978504786,2.990986824035645,38.38443374633789,-1.301058292388916,1020.012161217118,-0.02139042818474459,-0.008841585621669092,0.002059577356225821,-58.05780410766602
1613732333.828045,-0.06277679820867381,0.09465531893225439,-0.6585411971196271,-0.7439240116238028,-0.05838134364887465,0.9856524146958625,0.1126987807311418,0.5478504939357621,0.2869665044793889,-0.139530230209962,-14.93601989746094,-36.58340454101562,-7.937823295593262,1020.134526558549,-0.0004269193529878434,-0.002696941994189505,0.001730102384906194,-59.10092874016376,0.5136409301084338,-0.4072609870207347,-0.3231836922477829,-0.6825421462693724,0.2378694147941427,0.8552681248825137,0.4482998256157387,-0.2224527063246037,0.2898165477526149,-0.08768205110780945,-9.826449338712496,-38.25657999388986,-1.648902915941607,1019.965942382812,0.0145531278185769,-0.001474054371305333,-0.006262799349495972,-57.65884017944336,0.7430587246481789,0.4583024068160255,-0.1894610788714685,0.4493629015561057,0.1335459670932671,-0.8459938026573225,0.5046879903339472,1.125056126005914,0.2668398335184017,0.7254318614943478,3.181699713940251,38.0195592157239,-1.518351651192404,1020.011992361478,0.003658757056280599,0.002499985955604466,0.001647205125158977,-58.05505404804455
1613732333.853045,-0.06272456876433201,0.09468375462628834,-0.6585911738368218,-0.743880554084383,-0.05744603739379414,0.9826480839773868,0.1141355891084842,0.3358209656072665,-0.2794108599068554,-0.2464631339151921,-15.3019905090332,-36.58207321166992,-7.937709808349609,1020.13353249717,8.433978170727303e-05,-0.004081837227713465,0.002055048853812145,-59.09543746197976,0.5137382665551159,-0.4070864582246521,-0.3231766041820135,-0.6825763468483275,0.2113346869175679,0.8508546142822607,0.4542991826886869,-0.3699058151553537,1.817730968374844,0.1479966926425099,-9.812778472900391,-38.25698852539062,-1.633232116699219,1019.963256835938,-0.01158980915806977,-0.005704293244876717,-0.0004534054365234115,-57.63697814941406,0.7427385455848612,0.4579550816278121,-0.1898884543120743,0.4500654815748985,0.120583975134186,-0.8597955307974492,0.5104367503966456,-0.2436089397616791,0.01987434114373035,-0.3794297471534663,3.369813919067383,37.6596565246582,-1.732684135437012,1020.011840820312,-0.009121720324719215,-0.01145986107928417,0.007084817475936245,-58.05234146118164
1613732333.878046,-0.06255984086723823,0.09457806832565034,-0.6586921193821682,-0.7438184901217685,-0.05993559753004764,0.9817217235933129,0.1161894272549879,0.9816267561682571,-0.5204035764596087,-0.01744724687805471,-15.3019905090332,-36.58207321166992,-7.937709808349609,1020.132141113281,-0.001842358072773664,-0.006538875445703354,0.005494461751171766,-59.08528137207031,0.5138312609384985,-0.4068341212346535,-0.3232015722892079,-0.6826449846881246,0.204068191017238,0.8540250474979476,0.4682914001218588,-0.8751176330549353,-1.270979435342576,0.5722939731250664,-9.814441703474278,-38.5989050469623,-1.629166243035816,1019.963256835938,-0.01848315899160093,-0.002428940682617148,0.01316172095047191,-57.63697814941406,0.7422902720373831,0.4575875476282162,-0.1908949849468495,0.4507520687505011,0.09757921609169287,-0.8780223348291316,0.532178425575937,-0.8845384813966221,2.032938179794816,2.03014483778184,3.367654203560436,37.82829965632275,-1.731819224616728,1020.011669753738,-0.0311035260407401,-0.02947502720924262,0.02892032326916172,-58.05234146118164
1613732333.903046,-0.06235224704893822,0.09449436560650289,-0.6588645973959961,-0.743693783254735,-0.05609833977205936,0.9832108284886629,0.1119560145733714,0.8694823977168497,0.03502243742823261,-0.4496072077253987,-15.29772567749023,-36.9472770690918,-7.487222671508789,1020.132887092714,0.002091146256010908,-0.005215507824156957,0.001775963269089672,-59.08988747352405,0.5141121273784971,-0.4064586073838825,-0.3229949474761897,-0.6827549011499072,0.1912707395660957,0.8796224681648558,0.5012645947667219,-2.715212915037764,0.6829442279975682,-0.09179511341714441,-9.814550399780273,-38.62125015258789,-1.628900527954102,1019.966674804688,-0.03088945708159284,0.02353584699517734,0.04526014579254577,-57.66430282592773,0.7420964120340656,0.4566903986046777,-0.1929089236481724,0.4511240117349994,0.08231004862883887,-0.9101834106932116,0.5650497231013845,-1.019052698303519,2.047805232535814,7.256905847576684,3.365190505981445,38.02067947387695,-1.730832576751709,1020.011465874351,-0.04299989867074256,-0.0611880162330304,0.06169681582359663,-58.05222969967468
1613732333.928046,-0.06213017584329555,0.09447078089706212,-0.6590244575767611,-0.743573716831888,-0.04265503852663332,0.9720055693470683,0.1083568161026366,1.08660667192731,0.08673720123390147,-1.121863170465712,-15.29772567749023,-36.9472770690918,-7.487222671508789,1020.133911132812,0.01574870492523961,-0.01645526691071134,-0.001412026531433006,-59.09621047973633,0.5145768682300608,-0.4048230883668192,-0.3231740224191768,-0.6832915117363084,0.09476152280580026,0.8935901931754194,0.5489674942564926,-7.953558540357118,-2.652981543238263,-0.8431664783404944,-9.811313183226501,-37.95540857392346,-1.636818372642975,1019.966005396418,-0.1251229630820433,0.0382151698209607,0.09054891477720857,-57.65931015591696,0.743053556598669,0.4557838657247753,-0.1950435196025821,0.4495431130705499,0.02781337751509981,-0.9988732974555157,0.7207932976161563,-5.374106302510382,-7.451674575732631,17.71897181126067,3.36983858733129,37.65772836579942,-1.732694254136416,1020.011047363281,-0.09171525404436216,-0.1490456618298006,0.2174430868733543,-58.046875
1613732333.953046,-0.06189917612518417,0.09448013402123802,-0.6592619234983849,-0.7433812578784627,-0.04220782327531477,0.9726747080905683,0.1135170510412416,1.450836989664667,-0.5463948653869275,-1.041924628581362,-14.56782913208008,-37.3224983215332,-7.932708740234375,1020.135620117188,0.01644769359454239,-0.01584274261688259,0.00437569409943245,-59.11260604858398,0.5165715801968994,-0.4023829343285755,-0.3222510557121218,-0.6836617571284236,-0.02720994174856555,0.9625358671907764,0.6414076351310614,-17.90054361384973,-14.29324861636294,-4.313053089307379,-9.811008453369141,-37.89273071289062,-1.637563705444336,1019.965942382812,-0.2437346517433401,0.1090853133896653,0.1778779992963339,-57.65884017944336,0.7444400361288573,0.4550374124823873,-0.1998728319317193,0.4458704066294337,-0.1824732672086994,-1.16456686267039,0.9076636834151263,-19.04760736820324,1.377149597068502,34.93591821466929,3.37443733215332,37.29862976074219,-1.734536170959473,1020.01074702309,-0.2902971013108092,-0.3117222643111502,0.4067594925021633,-58.046875
1613732333.978046,-0.0617534781203212,0.09446527051946266,-0.65953952592204,-0.7431489947808886,-0.05194277779179697,0.9923038118804378,0.10832461030558,1.259789550664535,-0.4695713381388239,-0.847750810511172,-14.56782913208008,-37.3224983215332,-7.932708740234375,1020.135620117188,0.006804254774810109,0.003709658013756556,-9.258022814859906e-05,-59.11260604858398,0.5213206824495447,-0.3993912026273884,-0.3186899805760146,-0.6834800470337828,-0.04100788347842056,0.9373974082384866,0.7514722867926036,-33.03223766012383,-25.99109500113675,-10.41756941780456,-10.14478164741991,-38.2067715999561,-2.014508106550533,1019.9650738356,-0.2539624666905305,0.08821414668483443,0.2786125575071478,-57.65397835071057,0.7452848584272581,0.4515669232839526,-0.2145665260754327,0.4410868742721022,-0.248010475186506,-1.201090466594154,0.8711218557535586,-31.26325098557764,35.19253925028832,62.48961868302895,3.538832318651478,37.29712656432449,-1.531967283144557,1020.0107421875,-0.3262825681232268,-0.3416432302638915,0.3761598813910182,-58.046875
1613732334.003046,-0.06146302055569557,0.09458060564055039,-0.6595239773634293,-0.7431721838946652,-0.06952244422581745,0.9937484727062186,0.1025848765741305,-2.056939686479364,-1.500294623199204,-1.600245401289182,-14.93806838989258,-36.95596694946289,-8.383081436157227,1020.135620117188,-0.01021645842114646,0.00518734939072067,-0.005829803693176907,-59.11260604858398,0.5282080611534962,-0.3957672908222013,-0.3118344250137182,-0.6834522468772045,0.09312677493847291,0.9906384547605139,0.7826368281671393,-45.65028159175698,-23.48190651580842,-10.67103332036074,-10.1862907409668,-38.24582672119141,-2.061386108398438,1019.965212064575,-0.1177230764996078,0.1491512196015438,0.2954349188195153,-57.65582419067732,0.749017003161463,0.4473783598796407,-0.2317304110249127,0.4302504546553201,-0.2670305441204331,-1.321509725886141,0.6783495287082302,-12.86994731227407,-19.85812056047929,101.1085871059492,3.731551170349121,37.29536437988281,-1.294497489929199,1020.010452914158,-0.3047308376910586,-0.4548615616748552,0.1910881614910829,-58.04169339126937
1613732334.028046,-0.06112928188342178,0.09460781626450594,-0.658883482341317,-0.7437641444277157,-0.08174609676584577,0.9570798438295381,0.1114690489814747,-2.872263634443079,-2.104188323357005,-0.8291154463971677,-14.93806838989258,-36.95596694946289,-8.383081436157227,1020.133062609017,-0.02177138823522356,-0.03125026443434844,0.001381519476703366,-59.09178996645579,0.5354066039959768,-0.3899578304327475,-0.3034222371924713,-0.6849867122745532,0.2247822082350852,1.013261209282322,0.7297997293510673,-61.90251826346105,-4.170430626823735,-10.92007794916905,-9.82899284362793,-37.88238525390625,-2.502592086791992,1019.965515136719,0.01616456369949132,0.1828195240795057,0.2231633458495324,-57.65884017944336,0.7627203442330224,0.4427600671882924,-0.235572476331783,0.4081859991725786,-0.2391932722821272,-1.286379783162257,0.8284042994442148,19.96393915286403,-63.24957403556326,122.4323931820975,4.967297738750104,37.46576732195041,-0.8378381470644627,1020.010284070805,-0.2413249936960593,-0.4216221957840807,0.3365257577207968,-58.04140853881836
1613732334.053046,-0.06032214112294072,0.09386138656786082,-0.6587656214609302,-0.7440288309240659,-0.0947975246303167,0.993934621511292,0.1188410759965936,-1.041802483412251,-5.384140308681764,1.080164798311212,-14.56782913208008,-37.3224983215332,-7.932708740234375,1020.132934570312,-0.0348057880203632,0.005673328443491058,0.008163825319318535,-59.09074783325195,0.5420273595763195,-0.3805024930878921,-0.2944966948338927,-0.6889596261025441,0.307609611243458,0.9380614769452008,0.631116817391404,-69.0586179375362,15.68182402686746,-8.454467856076738,-9.82899284362793,-37.88238525390625,-2.502592086791992,1019.967014496879,0.1032520178008616,0.1225685183266658,0.09936719102413327,-57.67041336568183,0.7776559751541916,0.4350444945605576,-0.2399315941674921,0.3852263928702187,-0.1997141263637634,-1.352791187126521,0.7498042879684931,14.70203258865981,-32.46824720005716,128.2786324126756,6.197339534759521,37.63538360595703,-0.3832869529724121,1020.010131835938,-0.1618555982133954,-0.4942254188149078,0.248552183292553,-58.04140853881836
1613732334.078046,-0.05982607493703947,0.09290439457649176,-0.658268419921462,-0.7446289654358099,-0.0877678578629049,0.9994040982454329,0.1002372507590416,-5.988245805565821,-3.995675481064542,1.703763452898167,-14.56782913208008,-37.3224983215332,-7.932708740234375,1020.134751101254,-0.02837345961889969,0.01129990964868493,-0.01210183714253226,-59.10701335405884,0.5477324971414305,-0.3686539584283772,-0.2865712819889891,-0.6942321549884642,0.2052683190935623,0.9164763978432949,0.5457234654025792,-75.37056077003389,19.31535283579452,-6.179135555301476,-8.812178234174759,-38.22645739319457,-5.053664699308113,1019.969055175781,0.008002096710607517,0.1174402103607107,-0.01294172339869028,-57.68616485595703,0.7891452735293795,0.4312232628424011,-0.2484826112908803,0.3597557118501086,-0.215096500758224,-1.303489779821192,0.4917515208155965,-9.602048055156882,-51.35077215223642,139.6047571552309,8.396918876440754,37.7853604515492,-0.7493222576032783,1020.009989961874,-0.1334553408530381,-0.4470560633798186,-0.007769624385243146,-58.0388689930878
1613732334.103046,-0.05927971791158474,0.09207540355215614,-0.658035947312324,-0.7449809122505789,-0.07492100328933481,0.9695675278983003,0.1256761947518092,1.633171681982794,-3.122430175802283,0.9011311885996468,-14.19648361206055,-38.05791854858398,-7.479720115661621,1020.135521426563,-0.01594796436025317,-0.01845427335726959,0.01242168945624119,-59.11197682057988,0.5543121353169206,-0.3572765525414294,-0.2755679834512872,-0.6993109301486492,0.2163502364615549,0.8930895264818137,0.5771604439901257,-86.87553436522542,4.471245163785931,-2.889209816448628,-8.563655506379941,-38.15476644208383,-5.481685551538394,1019.968078613281,0.0227682544934991,0.1143072188587169,-0.01011096070762676,-57.68070220947266,0.8025969499081921,0.4306257835654727,-0.2502453364499551,0.3282748774634652,-0.1742041824349646,-1.175786934662312,0.3969700792254166,-1.522211159534659,-100.63053961302,142.280278446317,10.92870712280273,37.95798873901367,-1.17064094543457,1020.009821118521,-0.05564048004945076,-0.3231313915298481,-0.1018349805659002,-58.03584662779892
1613732334.128047,-0.05855469248579693,0.09132228620031703,-0.6586794640217029,-0.7445621956212761,-0.06818083308609756,0.994052033563674,0.1236666075046609,5.02009386013809,-2.875992531655581,0.8259878962638185,-14.19648361206055,-38.05791854858398,-7.479720115661621,1020.136474609375,-0.009526521230641412,0.005845552203014966,0.01182566208187477,-59.11807250976562,0.5620453457481148,-0.3477417257557511,-0.2602239714708659,-0.7038811648633538,0.3375586727831303,0.7673752949583286,0.5805063139649846,-95.08607883455589,-10.56345263563923,5.431502050096166,-7.755801016712344,-37.87491024303414,-6.814272959814367,1019.968078613281,0.1411950565785281,0.01271319585187591,-0.03671478826621119,-57.68070220947266,0.8161100246114698,0.4332700613516008,-0.2437281721182705,0.2944720575285441,-0.2166733853814778,-1.100884810626509,0.383496605876827,-6.897793362921216,-114.4974331154609,126.518895134594,13.82176934570876,37.39307806968599,-1.776486693628576,1020.009521484375,-0.07450431664585824,-0.252965886618083,-0.1171603942663109,-58.03047943115234
1613732334.153047,-0.05813951955048215,0.09081534589146043,-0.6591460736645902,-0.7442437748534112,-0.06202461111931198,0.9930977166577022,0.1205566961354186,1.891822149236776,-2.119917108655269,0.4266683370755442,-15.30403900146484,-36.95463562011719,-8.382967948913574,1020.13523605267,-0.003689343798148363,0.00475132917219887,0.009757346854960942,-59.10750975905474,0.5685737579865724,-0.3397687782387065,-0.241699752782667,-0.7090977079704509,0.3888470771807989,0.7036257861083776,0.5883846964713053,-92.96418249068761,-4.097872524742624,17.0341903524357,-7.731779098510742,-37.8665885925293,-6.853898048400879,1019.967346191406,0.1825250973330096,-0.02303296005647347,-0.05824600156600072,-57.66976928710938,0.826895385223956,0.4363047990184237,-0.2389899970079124,0.2622133693251456,-0.2342216887690973,-1.095376753920591,0.359615475652075,-22.09037862428083,-78.79926612342339,125.356006939308,16.71428680419922,36.82827377319336,-2.382218360900879,1020.009521484375,-0.06835240888692749,-0.251340622609834,-0.1403525251599255,-58.03047943115234
1613732334.178047,-0.05800578162040084,0.09069236365017248,-0.6592907501627741,-0.7441410688018458,-0.05990315599191064,0.9702607723988016,0.1080065334756196,1.058973670005798,-0.2574055841540916,-0.33816259629585,-15.30403900146484,-36.95463562011719,-8.382967948913574,1020.133911132812,-0.001609939582479922,-0.01812672475025986,-0.002457078804714645,-59.09621047973633,0.5730145778599515,-0.3326434998172107,-0.22316441680837,-0.7149732748593481,0.3819984746203557,0.6345074473240848,0.5556034881258827,-85.71797142440188,-4.97515014986202,26.11373666354864,-7.446897867057848,-37.15816624062316,-9.692850733387164,1019.966434400505,0.162828574365318,-0.06345469126840157,-0.1178021058832885,-57.66466539507122,0.8331825623568817,0.4410899134649419,-0.2411093403699276,0.2302334110858106,-0.190053835142198,-0.8897293743554873,0.2397154193170543,-29.00540915176374,-61.32406873688934,129.535822529543,22.54045104980469,34.61662673950195,-5.459268093109131,1020.00732421875,0.007974426253925276,-0.04654870079921197,-0.2498517875217014,-58.01408386230469
1613732334.203047,-0.05798726129237114,0.09085234526995388,-0.6596639757147059,-0.7437921189455683,-0.06062803385708451,0.9820972129011156,0.09955830146628462,2.181568920133776,0.06563083668696562,-0.3482813157559948,-14.93175506591797,-36.9486083984375,-7.487336158752441,1020.133911132812,-0.002320481556160909,-0.007271347865052511,-0.01139668151721845,-59.09621047973633,0.5751934490126513,-0.3274692731346693,-0.2052747519570578,-0.7209270920597783,0.3689834591876746,0.5840566562775468,0.5472736823114429,-73.71800594731707,-2.716105669224861,35.45945737273032,-7.426660537719727,-37.10784149169922,-9.894523620605469,1019.966369628906,0.1337651404463105,-0.08634057029526276,-0.1481659884294389,-57.66430282592773,0.8392585422465246,0.4444227651325874,-0.242254915407942,0.1985447007494356,-0.2232789416401299,-0.8527121693457108,0.2293388396822238,-20.54955900609525,-58.27886701900146,118.3174444617515,22.54045104980469,34.61662673950195,-5.459268093109131,1020.010729603473,0.006102958798126296,-0.01338473758027382,-0.2532457573721974,-58.04509306472225
1613732334.228047,-0.05788689031440011,0.0908989011185571,-0.660140916180885,-0.743371013844297,-0.05925314567789998,0.9852377852326859,0.1069148070058,2.36216467410387,-0.5074926930963153,0.04217024647071316,-14.93175506591797,-36.9486083984375,-7.487336158752441,1020.13723709168,-0.0007807794025529013,-0.003402954264259695,-0.001412210086946862,-59.1279718061169,0.5752442197467952,-0.3230827003038659,-0.1891222530069167,-0.7272768471617923,0.3632551350569289,0.561757220918797,0.5325572302936381,-64.2302851475758,-4.357631843655224,43.84727407322215,-7.46267706228226,-36.09165813076548,-11.87082276530542,1019.971082427617,0.1117507885701008,-0.08284478749508126,-0.1813221234172369,-57.70402201624243,0.8443893371877002,0.4460758302251037,-0.243665581897914,0.1689250171753129,-0.1974330744931083,-0.7993411717425888,0.32473835936198,-13.02049577096352,-52.19488486763377,121.0703716296548,25.25918616835991,33.00375996387186,-6.07216467162604,1020.010925292969,0.06247631653728031,0.03347273507518968,-0.1535453943642517,-58.046875
1613732334.253047,-0.05784344535466873,0.09090184895843292,-0.660309385812193,-0.7432243952453855,-0.05086646961226731,0.9846700302308637,0.1038479298041836,0.1019207719253309,-1.166970854691053,-0.4975741505622864,-14.57209396362305,-36.95729827880859,-8.383194923400879,1020.137329101562,0.007667267359462676,-0.004016766946893872,-0.003860594143137628,-59.12900161743164,0.5734005991034659,-0.321879500287326,-0.1731101869051652,-0.7332147237275932,0.3496987222916754,0.4739917618062031,0.4820565724150674,-48.35035303611487,-10.68025539316788,51.43720645688148,-7.46630859375,-35.98919677734375,-12.07009220123291,1019.971158161709,0.07714127976626464,-0.1468708439864448,-0.2448947858948891,-57.70547144089693,0.8507682499811445,0.4423059308894719,-0.2462357469893277,0.141091401957116,-0.1991450072787555,-0.7848873414523927,0.5159999989771854,10.55023926957174,-41.67019085661794,123.6446688678745,28.18408051324205,31.17498598546948,-6.821637006827424,1020.007019042969,0.09402116348898459,0.03441273548783092,0.03355578640899528,-58.01408386230469
1613732334.278047,-0.05800281333373086,0.09100331112480249,-0.6603426515212716,-0.7431700011951842,-0.04474939311794904,0.9735806512354263,0.1012428911855884,-0.02052152402443874,-0.7153408348245697,0.03440184635272991,-14.57209396362305,-36.95729827880859,-8.383194923400879,1020.13881784455,0.01371119254508415,-0.01512450906229669,-0.006341347921058695,-59.13852558484425,0.5694811409029876,-0.3232205569332395,-0.1587528025226272,-0.7389212823437197,0.3439511314542827,0.498716511865743,0.4755715715352567,-35.49574812581546,-15.49974551416867,58.04819467865581,-9.100884975772253,-34.33498600109454,-13.59879977451738,1019.970703125,0.04810172865129374,-0.101989736383704,-0.2591908919156292,-57.70256042480469,0.8575073379019101,0.4321592470930418,-0.2535337177858035,0.1163339670132491,-0.264209144727401,-0.7917630424941303,0.5111970203765996,26.59061599437123,-8.894949449592858,130.6833192732341,31.71138381958008,27.38429832458496,-9.251378059387207,1020.006030694438,0.068874225939204,0.005608304688841485,0.01839013413888804,-58.00396917403277
1613732334.303047,-0.05810932862716662,0.0908372714625285,-0.6607701890290171,-0.7428018154876573,-0.03339103508646658,0.9669995244744504,0.1127519910324042,4.008732542766669,-0.04497754189112515,0.8040820874815566,-15.2966194152832,-37.31615829467773,-7.484607696533203,1020.137879441941,0.02456724069896634,-0.02185403979446345,0.006233485980791152,-59.12981230085595,0.56455158752332,-0.3245292213836293,-0.1455867880491231,-0.7448077259480614,0.3321109531957481,0.5087488822876474,0.5571107058058811,-36.35552752848769,-14.19312719703687,58.43451730758032,-9.316030502319336,-34.11725616455078,-13.80001068115234,1019.969406053738,0.0141602257243496,-0.07255951816297621,-0.1839269160065118,-57.69046287083226,0.8651437297878689,0.4168863599962435,-0.263200696657579,0.09189852318623344,-0.3781979373379312,-0.81164830473464,0.4499671084015205,72.7863131808116,-14.0845594352764,142.9787185900462,31.75878681177525,27.3216418386673,-9.272647744883484,1020.004877952281,-0.0006940563509105854,-0.04454323754274177,-0.05877870256813814,-57.99222183227539
1613732334.328047,-0.05811025400443056,0.09056252213636171,-0.6614758053061195,-0.742207082021206,-0.03913017424624532,1.001529917705317,0.09610370683100239,1.825393169596958,-1.343700015692099,0.4667876348617253,-15.2966194152832,-37.31615829467773,-7.484607696533203,1020.136535644531,0.01823098591279651,0.01244744403219353,-0.00865446722408144,-59.11807250976562,0.558969174611615,-0.327342457883519,-0.1311365262041556,-0.7504686782836466,0.3034678734230173,0.4338328887429926,0.5392365405491339,-30.66269662564985,-37.05552185871385,70.48129953173319,-9.689542770385742,-34.10609436035156,-14.22816467285156,1019.967771780594,-0.04008745658674921,-0.127045406247843,-0.2061572362681667,-57.67522585517902,0.8783452083976681,0.3881917299101941,-0.2708093390250738,0.06527850130863888,-0.387595619687941,-0.8253492913614772,0.7163816555319135,127.7224430129606,-20.11604368431877,172.6766429690519,34.68784332275391,23.45006370544434,-10.58691310882568,1020.004577636719,0.03585733102560829,-0.1106225072463905,0.169924615223504,-57.99222183227539
1613732334.353047,-0.05806283844018574,0.09012058627293187,-0.6618409951181116,-0.741938942199286,-0.04817930169722102,0.9669424946398694,0.09902025942998229,2.540472908846267,-2.374860272813736,1.537100761765598,-15.2966194152832,-37.31615829467773,-7.484607696533203,1020.136535644531,0.008500188071874814,-0.02226685616282343,-0.004933710519865587,-59.11807250976562,0.5515579457315528,-0.3343379799895358,-0.1144100249812335,-0.7555505059658302,0.368707365792613,0.4358431057333302,0.492103396018797,-25.81171577444339,-44.0678556829707,76.78987095099664,-9.689542770385742,-34.10609436035156,-14.22816467285156,1019.966857910156,-0.009001722542225896,-0.1039935769639036,-0.252159613361235,-57.66976928710938,0.8923793947248118,0.3486846992409361,-0.2835845021423105,0.04038928764428267,-0.380621271556827,-0.7857036618235498,0.7512966362195311,154.6304973251026,32.98640180244043,177.1098096175013,34.68784332275391,23.45006370544434,-10.58691310882568,1020.004577636719,0.09571506121854942,-0.142672106410793,0.1607198011027575,-57.99222183227539
1613732334.378047,-0.05796370743664138,0.08947693850678175,-0.6625370511956101,-0.7414032065358311,-0.06244105340884674,0.9791651574412354,0.1189858119054776,4.464807874952586,-1.335200927720194,2.532821263297241,-15.2966194152832,-37.31615829467773,-7.484607696533203,1020.136535644531,-0.006758681514864719,-0.01027371022394253,0.01663899629202745,-59.11807250976562,0.5433868722176898,-0.3428459929819629,-0.09727526527488599,-0.7600793170305101,0.4099663978125173,0.4892170938347656,0.533691399940732,-20.94656035295523,-48.87560541143758,79.45682223685483,-11.47744480228385,-33.357845784,-15.05726705808462,1019.96858057373,-0.004094617302477186,-0.02949473762123019,-0.2064019637982694,-57.68040970479026,0.9005725549132587,0.3087861175596715,-0.3049267305418174,0.01701112071490641,-0.4486688146782509,-0.7721761819352519,0.5661276571735825,151.3022256120079,59.76115793193208,190.9818578264511,37.28136825561523,17.29354095458984,-12.8088960647583,1020.000610351562,0.08054572204369047,-0.2094280456537372,-0.0574490635557348,-57.95943069458008
1613732334.403048,-0.05791169415882443,0.08882910693080234,-0.6633095870929419,-0.7407940449076937,-0.04821169758662637,0.9800061284680339,0.1164275620788417,5.80570461374246,-0.6500280356241117,2.335481657079278,-14.92953872680664,-37.68637084960938,-7.482107162475586,1020.136535644531,0.006385025950920106,-0.009684875146655357,0.01589228344165254,-59.11807250976562,0.5347273594698814,-0.3518358870130646,-0.07992255117230791,-0.7640968914472945,0.4219205521901268,0.5131345655807166,0.6387206361323561,-21.61850194249061,-58.130886294379,79.709331300283,-11.5265941619873,-33.33727645874023,-15.08005905151367,1019.968627929688,-0.02873207353030106,0.01643191915635489,-0.09498301611855947,-57.68070220947266,0.9050757619554203,0.2691436177305734,-0.3290196361459815,-0.008353159459104037,-0.494625865209703,-0.7510617094908748,0.3225213381741707,148.6734362337159,66.33377924276401,197.0272406825693,37.28136825561523,17.29354095458984,-12.8088960647583,1020.000322457472,0.1033729421860574,-0.2710332313513815,-0.3104525921533776,-57.95427379168928
1613732334.428048,-0.05813432084295637,0.08841237071308211,-0.6642430145576499,-0.7399897746463192,-0.04008076795879317,0.98403264460111,0.09808103402714476,5.337179534745558,-0.3411424764122453,2.00750629031303,-14.92953872680664,-37.68637084960938,-7.482107162475586,1020.136535644531,0.01335628777016836,-0.005963191441931172,-0.000131899918354236,-59.11807250976562,0.5257331516044257,-0.3616863785936938,-0.06191254370591634,-0.7674260955946217,0.5033389126902535,0.3809809094044195,0.6240279395271618,-18.42475533976792,-66.08105652740801,84.15344061791866,-13.60276584682432,-31.91543763463313,-15.07164881356335,1019.967814152884,0.01496135627736225,-0.09273691222094591,-0.1008160838814577,-57.67549621768742,0.9056153263683147,0.23513470509969,-0.3503570631187424,-0.0388590607561967,-0.5226012004174437,-0.6365305383791695,0.2878521944621706,115.692210409077,39.03006455278267,208.3064728657527,39.18568420410156,9.395608901977539,-11.88907718658447,1020.000305175781,0.1277788504254644,-0.2393727720287263,-0.3501821845586288,-57.95396423339844
1613732334.453048,-0.05846558241282659,0.08827056718757637,-0.6652659188829737,-0.7390609634373118,-0.05206948225173572,0.9855298214103444,0.09939663602416772,6.738761388222961,-0.651966232057103,1.985263003736815,-15.30088043212891,-36.95095443725586,-7.93509578704834,1020.13232421875,0.0004371843501479859,-0.004784598166548153,0.003844930866709411,-59.08528137207031,0.5133751424918512,-0.3722837181894806,-0.04416672499240509,-0.7719109463795917,0.4452583421431056,0.4601827617500468,0.64784440476636,-12.26358407072591,-81.45979808972905,76.38678993780719,-15.26328480872919,-31.19647468455338,-14.68797386728301,1019.967379766224,-0.08231922962616496,0.01129943310558915,-0.06517665950371354,-57.67288520271312,0.9050130150366278,0.2030218830732268,-0.3669322491885352,-0.0710624417610566,-0.3687963522057669,-0.3644241072324282,0.4684538012369214,94.10970468503929,33.56993108825692,196.1216361633959,39.29866763503855,9.003886742612512,-11.82422281471895,1019.996398925781,0.3218377598796789,-0.05018018015276828,-0.174221902712889,-57.92117309570312
1613732334.478048,-0.05866914578619012,0.08805774957578143,-0.6663374830510203,-0.7381043414062072,-0.04358711388512201,0.9814001457498062,0.117855447959212,8.251677127651844,1.826992978524652,2.134932440337964,-14.96786349136609,-37.27457772885851,-7.133964831690104,1020.133793996525,0.008042892669254587,-0.009233497810268883,0.02507274448945741,-59.09990430002772,0.5037919796223109,-0.3859450365137561,-0.02462099518788727,-0.7724056993142813,0.6427669233007893,0.4712229241753851,0.7446753289639597,-18.75125179412876,-86.1319707482687,75.75403507962508,-17.32679176330566,-30.33770942687988,-14.17992687225342,1019.966857910156,0.07330213840749486,0.04576502055680809,0.04957113552639625,-57.66976928710938,0.9012325683144644,0.1765088171569741,-0.3831759023838788,-0.09808851462507606,-0.1349290195416772,-0.2189540593327375,0.3919524069168744,58.84143500911475,57.35078593520601,167.4014179796625,41.44723892211914,1.55462646484375,-10.59090709686279,1019.995415347161,0.5877506728819725,0.0231339496339014,-0.2463542499801872,-57.91362412979256
1613732334.503048,-0.05918446723646837,0.08828169117734752,-0.6673782347851339,-0.7370953422329116,-0.05053914653182267,0.9980630686642686,0.09910339045083283,6.029364304779358,4.33451393534024,1.314806704447643,-14.92749404907227,-37.31380844116211,-7.036849021911621,1020.133972167969,0.0004353005633322756,0.007123579448970057,0.009166368907481993,-59.10167694091797,0.495899152896624,-0.3968349986301717,-0.007600413737488041,-0.7723387716890302,0.6391058375487975,0.415489986538887,0.7951888950725696,-9.805537577250496,-64.73507906723661,58.24573966686051,-18.56060213060235,-29.61082908815674,-13.96304630314685,1019.966323315798,0.03572812147276286,0.01155186198664271,0.1160125072477651,-57.66445118698044,0.8958917717560066,0.156763104424154,-0.3976434016570196,-0.1211529641777327,-0.04447858704406963,-0.07709284070135607,0.2690635633710112,34.66248630735906,47.16660931871587,131.441749844294,41.4383167071657,1.446759194061906,-10.56700751582119,1019.994262695312,0.7034611851073153,0.1068179061575998,-0.360028608498982,-57.90477752685547
1613732334.528048,-0.05992658840430561,0.08898332064820112,-0.6680756191709445,-0.7363190062592352,-0.04707074771163357,0.9998136765541822,0.07865362888443969,2.919309021613954,4.028667689430619,-0.05728637301793027,-15.26886635405459,-37.31256659563391,-7.03674316258651,1020.135566284865,0.003726544281645859,0.008668977788335249,-0.009179236982666898,-59.11187146079845,0.4892384774144387,-0.4049652349468081,0.004119020762410671,-0.7724136549492553,0.6773232746935741,0.4077902018927291,0.8146270213869055,-0.2116205082188936,-41.32596441853182,44.24079054611428,-19.86236763000488,-28.84391403198242,-13.73422050476074,1019.965759277344,0.04982065378750163,0.019223488773094,0.148307416697955,-57.65884017944336,0.8939296780182895,0.1385121997620792,-0.4031356177405119,-0.1383305375813562,-0.09274305410739045,0.01433556981590305,0.3514613666491321,34.87750602634286,6.361531561637216,93.68080063850387,40.795654296875,-6.322863101959229,-8.84553337097168,1019.993235811998,0.6637194917526836,0.1499808654860249,-0.2795479714763819,-57.89395938663884
1613732334.553048,-0.06047547992674345,0.08974191819780597,-0.6684479343994056,-0.7358439730003282,-0.02948778434281497,0.9752585198652155,0.08114594302313805,2.086128818417623,3.432925797757231,-1.244270153968763,-15.29346466064453,-37.31247711181641,-7.036735534667969,1020.136469653983,0.02246311679065485,-0.01215246365648417,-0.003267724299346505,-59.11886647970355,0.4842169509569476,-0.4088807273682932,0.009659837257568926,-0.7734678508545216,0.6447442610000231,0.4157654448068946,0.8201121260412012,4.662359236537442,-17.04751293117148,30.2612233995918,-20.71829824781744,-28.50024514723686,-13.12841116059577,1019.967468261719,0.005044637746876086,0.0360232093930808,0.1602865606461876,-57.67523574829102,0.8948778999565949,0.1220192168582433,-0.4025170989911706,-0.1492685086671714,-0.1718342748719112,0.009608054198532123,0.4169654783400728,29.67890204795287,-13.26132276733373,53.88837113445981,40.795654296875,-6.322863101959229,-8.84553337097168,1019.9921875,0.582444664274165,0.107495044704192,-0.2236601887323171,-57.88291549682617
1613732334.578048,-0.06081387906744249,0.09047430922292964,-0.6688674890838893,-0.7353450492005267,-0.04702745899364504,0.9871921543639187,0.0783237008267022,2.127248186297061,2.609978860603176,-1.056812481621619,-15.28623637485699,-37.66449760121563,-6.161988520884512,1020.137451171875,0.004654448175329493,-0.00404480381336076,-0.006779933689139372,-59.12900161743164,0.4805735946340931,-0.4099760926721481,0.01125924382533513,-0.7751398156163732,0.6196096713218808,0.4066236730313681,0.7698169616970114,8.793719602356962,1.524087043658753,17.18516099023097,-21.7152156829834,-28.09996795654297,-12.42281436920166,1019.967413036451,-0.02615136284882284,0.03376183665681053,0.1096194728299259,-57.67523574829102,0.8967187662915437,0.1124009337397099,-0.3990333995081218,-0.1549975361386659,-0.3561785498390609,-0.03275636801950385,0.4927698326388876,14.07621711476664,-18.07638546525975,25.05535924137384,39.75022888183594,-10.28541469573975,-8.450096130371094,1019.989990234375,0.3946730045794812,0.05035225746097588,-0.1594168772615289,-57.86651992797852
1613732334.603048,-0.06072725959446204,0.09078752507344813,-0.6690770908378634,-0.7351228889917724,-0.06083697725284469,0.9812151705814788,0.0829248305542553,0.7848636688933589,1.610316110470423,-0.6574481404590063,-15.28604125976562,-37.67399978637695,-6.138376235961914,1020.139221191406,-0.008795531155973662,-0.01016457345670059,-0.001592378060745631,-59.1453971862793,0.4785574818204967,-0.4089974511157689,0.009368752324764529,-0.7769261808915019,0.5988555726271736,0.4135303425214265,0.7337755550311927,9.723181793077684,10.99279055694308,8.449442811205586,-22.19191986843158,-27.93307727015961,-12.41899474957922,1019.96484375,-0.04345991967568343,0.03789975609443142,0.07412696175709922,-57.65337371826172,0.8983195273748058,0.1087923550268577,-0.3950193002384069,-0.1585718948027492,-0.5291137813681565,-0.05544876635000855,0.5641986744134198,0.6155368071861211,-17.70840590117912,7.486801531167842,39.75022888183594,-10.28541469573975,-8.450096130371094,1019.989990234375,0.212585799101799,0.01449776902661749,-0.0944359170650366,-57.86651992797852
1613732334.628048,-0.06058514650081442,0.09096028277116512,-0.6692358508052656,-0.7349687320335737,-0.05977387160064437,0.985491559760664,0.08948661891249708,1.559529651806919,0.9695062616836556,-0.4819119130896615,-15.29347710429813,-37.03726070387079,-6.923812256047037,1020.139221191406,-0.007336885705427576,-0.005910266349423905,0.005455498849166466,-59.1453971862793,0.4775640064183065,-0.4069436033396677,0.006235510111004341,-0.7786466521067426,0.5931588681057246,0.4125231912265522,0.6986322690629296,9.078340455227428,17.86311589846707,2.321785534331293,-22.80700874328613,-27.71773910522461,-12.41406631469727,1019.962352130389,-0.04437016669209257,0.03482845666432621,0.03554377573156597,-57.63160623047087,0.9000788657991511,0.1079105972033473,-0.3907558440275695,-0.1597487371880476,-0.584955739400303,-0.02940070809406566,0.5797485953297949,1.601505995443641,-22.50673717539519,-7.946154016452113,39.78419876098633,-12.45129680633545,-8.895187377929688,1019.987976074219,0.1504525608112464,0.03977513805930103,-0.08593970924576576,-57.85012435913086
1613732334.653049,-0.06048867635351662,0.09121269150339531,-0.6694161733267412,-0.7347811506005812,-0.06680817205893461,0.9911447674537632,0.09041706899927085,1.391375861242234,0.9843101314132665,-0.5064482773188463,-15.29457092285156,-36.94359588623047,-7.039350509643555,1020.136535644531,-0.01392857296940001,-0.0002839132742716651,0.00695876180845598,-59.11807250976562,0.4774127885960379,-0.4043029759814641,0.00229291389748424,-0.7801331569449433,0.5862198627201175,0.4187564981838679,0.6560785490844393,8.380738820712802,20.65719052061785,-1.549026988362184,-23.25294166082695,-27.41194210114317,-12.23382986167648,1019.962341308594,-0.04465411184350585,0.03758368741928211,-0.01134128180115626,-57.63151168823242,0.9027173599182032,0.1088308619483958,-0.3845596025618556,-0.1592766024996,-0.6798263997643691,-0.1467939701567409,0.6047107313078953,-5.640106878885875,-34.24701942753161,-13.63317608151494,39.73299170904043,-12.4680723918847,-8.93756689908208,1019.985778808594,0.04668010355199799,-0.0730583101668548,-0.0701575390488436,-57.82826232910156
1613732334.678049,-0.06042271552705778,0.09138913457514099,-0.6695106927733601,-0.7346785368743919,-0.05909829799031185,0.9881881939776089,0.0853685856203589,0.2105053572219273,0.4196348502332983,-0.3197047894406839,-15.29270481465649,-36.6035742616718,-6.632977597805654,1020.138206786198,-0.005902332902820312,-0.0032512737283184,0.002226676337351548,-59.1330361907776,0.4775677468987077,-0.4013919258808717,-0.002093715358604913,-0.7815425789144189,0.5479774410857178,0.4240748028721828,0.6478437631063799,6.227929928737646,19.08849380350828,-5.040627306111445,-23.88804054260254,-26.97642517089844,-11.97713661193848,1019.961397121732,-0.07532330954884815,0.03872228648147742,-0.02425782635881248,-57.62094490948562,0.9051358349194826,0.1139363801417869,-0.3769280659665354,-0.1601900136387913,-0.7896057892579437,-0.1505951696508102,0.707304385766482,-22.82982526792567,-28.01469293973593,-15.89883474769641,38.71124649047852,-12.80279922485352,-9.783174514770508,1019.985778808594,-0.07318596834388955,-0.06538308284022479,0.02313869375904584,-57.82826232910156
1613732334.703049,-0.06032761949158374,0.09147684221906946,-0.6696909536211207,-0.7345111087438063,-0.05286157134534412,0.9697055634413508,0.08917700442695511,2.296758399684531,0.853317145834165,-0.3591979626648214,-15.29252624511719,-36.57103729248047,-6.594091415405273,1020.138366699219,0.0005375313561564548,-0.0217675989131505,0.006548308051311301,-59.13446807861328,0.4782795676795544,-0.3989235667269802,-0.005747266108516095,-0.7823519297354661,0.5568003169561792,0.410639159968166,0.6630017895255387,3.217258842115176,12.08449194009108,-5.864269377683279,-23.56389342646433,-27.309082855177,-12.1728300636676,1019.960066977212,-0.05981233870700231,0.02136969777951002,-0.01297922642478716,-57.61069227011068,0.9060335509060609,0.1207064866322706,-0.3720660514359775,-0.1615544731365688,-0.7979066074880616,-0.1417110961388468,0.7618396525068978,-22.6315261371949,-6.233040254443737,-9.243158698957448,38.71962150239394,-12.79458670592676,-9.793650481903123,1019.983642578125,-0.0871016366575486,-0.04353292429442845,0.07355891124704407,-57.81186676025391
1613732334.728049,-0.06021484095729637,0.09157804674303897,-0.6700919166323127,-0.7341419823549801,-0.06025429394310183,0.9849436323240062,0.09538829228470509,3.050879042161044,1.152173910387297,-0.3697682661125982,-14.59139391854276,-37.6288378201317,-6.586828990101607,1020.141625969478,-0.00667197604945283,-0.006615177981741403,0.01386720701853204,-59.16573670266052,0.4792537451080742,-0.3975853606550112,-0.007860727972388192,-0.7824191973773401,0.5721294590785481,0.3919052126013425,0.6146033143324847,5.066611325462924,7.111254692567083,-3.726526072962912,-23.17152976989746,-27.71174812316895,-12.40970706939697,1019.95849609375,-0.04042006009067014,-0.0001574261259154868,-0.06344661106054389,-57.59872055053711,0.9058768331816902,0.1247687704879584,-0.3706778616570716,-0.1625329266919867,-0.7329575759045789,-0.1102373879118168,0.7268289439811616,-5.798678688071945,-7.724746039423998,-9.091828463377691,39.44205474853516,-12.0861701965332,-10.69731330871582,1019.982621165963,-0.02322430644106129,-0.005037482404522908,0.03848224731829764,-57.80379685313646
1613732334.753049,-0.0600913636087004,0.091719011348153,-0.6704233610179233,-0.7338318289350017,-0.06291189632929085,0.9894417352727922,0.08434390307065019,2.110966736060305,0.5323494860430809,-0.2287172971426203,-14.55725479125977,-37.68034362792969,-6.586475372314453,1020.141440636911,-0.009054768070261862,-0.002182033042805445,0.003759941380491687,-59.16285899764767,0.479949795701937,-0.3974507753845019,-0.009465446374378373,-0.7820430114433983,0.5631907755292405,0.4102227970558576,0.6022326827819439,3.448307565439773,1.681365804370931,-3.570029023059565,-23.17152976989746,-27.71174812316895,-12.40970706939697,1019.9599437484,-0.04730467053193081,0.01524173743597837,-0.07597527451557276,-57.6102953249898,0.9082450873099965,0.1236102798273587,-0.3651113594845002,-0.1628012420953869,-0.6795401378518399,-0.1218831571327925,0.7574315351811571,15.88708487582466,-43.57375768125603,-3.037044169506934,39.44205474853516,-12.0861701965332,-10.69731330871582,1019.981567382812,0.02155586149045242,-0.01658393158333353,0.06034737982534944,-57.79547119140625
1613732334.778049,-0.05988008869823723,0.09168811812065188,-0.6706646893498592,-0.7336324270852532,-0.06015798298373819,0.9870560616129885,0.09184325560004897,1.987041981083255,0.6150547807164524,-0.07088506960775433,-15.2818122786772,-37.67456354178258,-6.204821969351655,1020.140930175781,-0.00612897837709076,-0.004611699479825647,0.01189319922810921,-59.15633010864258,0.4810679888369764,-0.3978285842872195,-0.009936649622373271,-0.7811575851804926,0.5809782369198248,0.4196551257996896,0.6500080879056198,-2.4380167371147,-3.02209400231664,-5.145589563166662,-23.17152976989746,-27.71174812316895,-12.40970706939697,1019.9619140625,-0.02893131092310686,0.02270880909530459,-0.02758311448043906,-57.62604904174805,0.9111167252849095,0.1213778728810178,-0.3585372601826283,-0.1630431796551997,-0.6908836347428484,-0.09922923043452024,0.8289082536178629,-1.759179159731111,-13.59739746596397,-8.720037230965037,39.07730102539062,-10.99956512451172,-11.5657787322998,1019.980406210803,-0.0003032435722273089,0.004683848720191819,0.1212525378832914,-57.77360916137695
1613732334.803049,-0.05970960239452053,0.09165151885803538,-0.6708214487086722,-0.7335075630542052,-0.04650060285614539,0.9822427115825597,0.08116393905635569,0.5092104197879562,0.8830821429502608,-0.415812046692405,-15.28649139404297,-37.67452621459961,-6.202357292175293,1020.141688144667,0.007661330896805763,-0.009451854534072202,0.001619666965747269,-59.16360187264297,0.4830461243968145,-0.3978487818394116,-0.009150448384298453,-0.7799345956695295,0.6023911179448385,0.3894134123806113,0.7173465085007061,-6.506957838961655,-4.954724546408795,-6.644508945162653,-23.17238145433588,-27.88701890690915,-12.4076228287077,1019.961059570312,-0.007298574634077484,-0.007874782362511067,0.03975816622642103,-57.62058258056641,0.9106691692160751,0.1249747820419245,-0.3586771944138957,-0.1625200625217531,-0.7186417251168689,-0.1519395565798861,0.6857022378700017,-10.34554181493149,14.27478520416283,-12.41182089356077,39.07730102539062,-10.99956512451172,-11.5657787322998,1019.979370117188,-0.0270877946058443,-0.04127743519993556,-0.01998848832165762,-57.77360916137695
1613732334.828049,-0.05968227068346799,0.09175208578327521,-0.6708614123837773,-0.7334606571603197,-0.04778733769810659,0.9770577351074835,0.07639530587787899,0.2662241581433735,0.4733321360564827,-0.4142650198356888,-15.11244043854072,-37.49939724905022,-6.388166898935787,1020.144340509346,0.006544841748226423,-0.01463949356479748,-0.00300530665634977,-59.18735968276724,0.4851729176459685,-0.3977639664253916,-0.007814280157283136,-0.7786717286205249,0.6145248773882245,0.3709127367328486,0.7003099971237191,-4.539286650171878,-3.629358215609205,-5.700785275751352,-23.17329978942871,-28.07600593566895,-12.40537548065186,1019.960292784632,0.004715444434887585,-0.02588289368996891,0.02254155365305739,-57.61077525479037,0.9112850080139622,0.1244368483805984,-0.3576720931266761,-0.1616932609913564,-0.6983057122982722,-0.1079606747496885,0.6910338711028874,13.80138407660453,-8.985467735987324,-12.02668243433622,38.82455077376815,-11.52181614201445,-11.88818975375254,1019.977817988788,-0.008516240506736151,0.002792063909747046,-0.01635977114499708,-57.76169657590828
1613732334.853049,-0.05967012558295306,0.09186059881260722,-0.6709531854852987,-0.7333641111375347,-0.06044842459637838,0.9851025035445762,0.08019576628519115,1.079335310819117,0.4628756440902888,0.04441839425752664,-14.92433929443359,-37.31013107299805,-6.58897590637207,1020.146179199219,-0.005969950625552782,-0.00661041611601389,0.001080345360983414,-59.20551681518555,0.4868103739934603,-0.3977065032909102,-0.006936850421285878,-0.7776867207686301,0.6260303257849359,0.389568763493474,0.6851627923807234,-3.11581296126842,-1.016920965234231,-4.251535415649414,-23.00610857099276,-27.91247731945522,-12.40934235657901,1019.960205078125,0.01626508297305456,-0.007093767856122519,0.007277722039403941,-57.60965347290039,0.9128933305264266,0.1219239790023539,-0.355030956234183,-0.1603534421839587,-0.7196824778259012,-0.1592209457478841,0.6846339472474419,21.15323627805166,-19.8146141798417,-7.782017448843071,38.7623756381599,-11.6857456839227,-12.0285544127088,1019.977139427705,-0.03468782392754489,-0.05084139592508627,-0.02774657657812733,-57.75646729686347
1613732334.878049,-0.05962002367077816,0.09184783247475722,-0.6711495651165573,-0.7331900761235861,-0.06019333444630867,0.9934590633094333,0.0837853850972777,1.083722096224618,0.003205216065898409,0.1822971513625711,-14.58168515673549,-37.65570508301024,-6.586641788930747,1020.146179199219,-0.005721724908184264,0.001702616763124154,0.00519069180829062,-59.20551681518555,0.4884087680121177,-0.3972542972869472,-0.006445780864850494,-0.7769197625967061,0.611139263461436,0.3839739882160302,0.6958733868109478,-4.947010869583139,1.26141934797997,-5.529312417109163,-22.80700874328613,-27.71773910522461,-12.41406631469727,1019.961059570312,0.002226602606101013,-0.01274422914965097,0.0172586366043163,-57.62058258056641,0.9125722388834484,0.1227275641368698,-0.3552347991300077,-0.1610963117630606,-0.7446964951592598,-0.1216522479846284,0.7299368427855671,-10.18907370018433,17.96006636744892,-1.754011985846641,39.45311737060547,-11.002028465271,-12.42768096923828,1019.975158691406,-0.05912052115340134,-0.01248477406604775,0.01824628173322054,-57.74081802368164
1613732334.903049,-0.05948047915515396,0.09179820899765469,-0.6711150763678224,-0.7332391880511774,-0.05681347738015257,0.9879385536368291,0.08173716929646613,-0.8499777030583898,-0.2465532236961545,-0.4571873430940302,-14.55725479125977,-37.68034362792969,-6.586475372314453,1020.141845703125,-0.001894277118868559,-0.004448219675417218,0.004794327376785489,-59.16725921630859,0.4900464739029161,-0.3964664049193479,-0.005886585724184468,-0.7762949087937244,0.6182458985406314,0.3727339757523372,0.6961155424118814,-3.98757937610597,1.198697470934733,-4.052519148806816,-22.96826171586492,-27.71291954923981,-12.59890818532775,1019.959794776533,0.01052161626005397,-0.02363805090400274,0.01624048182195528,-57.60878442609003,0.9093431162705056,0.1286348922073298,-0.3605899817439386,-0.1628584798392139,-0.7086256448454774,-0.07212326213502199,0.6082647867777174,-21.63968810731657,29.73658747399552,-3.872468748113945,39.44633968551226,-11.00530930941565,-12.41980107214845,1019.973022460938,-0.0132798618125854,0.04398001418773556,-0.09283494734800657,-57.71895599365234
1613732334.92805,-0.05932611408656261,0.09177404354279652,-0.6709621738912958,-0.7333946397329891,-0.05851590003374402,0.9793820632969917,0.08626142495985249,-0.5111010838795755,-0.570874125539675,-0.2016241882347599,-15.27260608567135,-36.95888908485127,-6.591349236391422,1020.145176099474,-0.003658437954619149,-0.01240045706541265,0.007198613527410263,-59.19377081369286,0.4912618275659008,-0.395966412000019,-0.005282582853056093,-0.7757863781889377,0.6264603942290811,0.3801220157840551,0.6759552253678124,-1.582897283323743,2.729401713629982,-1.56890842427105,-23.1805248260498,-27.70657539367676,-12.84222221374512,1019.958129882812,0.01933429848046317,-0.01578102947844242,-0.00472322731485106,-57.59325408935547,0.9082376564328021,0.1313801858790134,-0.361935926674048,-0.1638459421280659,-0.6980253577565358,-0.0660140799039696,0.619137851489862,2.857329307589198,-7.98642032841857,-6.522664175670829,38.71857833862305,-11.35759353637695,-11.57368850708008,1019.971976572262,0.0001118398798503188,0.0536264409990878,-0.078599716236705,-57.71092879806983
1613732334.95305,-0.05907950504774544,0.09159467621261261,-0.6708766554867189,-0.7335151740450991,-0.05709912302684198,0.9951976373829995,0.08639834290790152,-1.301633486762106,-0.8542745034779606,-0.2274494751580756,-15.29141616821289,-36.93991851806641,-6.591477394104004,1020.146013054989,-0.002182920718330275,0.003533905808303539,0.006980905776589485,-59.20152919161917,0.4920215913103219,-0.3954549390527372,-0.005183206929672522,-0.7755663654821162,0.6017162697388548,0.3916450605992935,0.6461466165421725,-0.6299529128536425,4.240748680330654,-0.4633374564602293,-22.6621192405342,-27.88806543851521,-12.84637551540296,1019.957753133251,-0.006262579465852024,-0.008381523698079702,-0.03290265793416654,-57.5910308729491,0.9101220042365996,0.1299621300880491,-0.3576577975899061,-0.1639152199869413,-0.7416542973531712,-0.1560720809839885,0.6749012208027898,12.51005796455893,-33.01966398154575,-4.449890296374278,38.71857833862305,-11.35759353637695,-11.57368850708008,1019.970886230469,-0.05036381683641571,-0.03716287584741855,-0.02971137693376519,-57.70256042480469
1613732334.97805,-0.05894260942903821,0.09137653603904981,-0.6702277806607344,-0.7341462571212544,-0.05223743118670481,0.982419137411926,0.08527151235093532,-6.498643914330233,0.6730453546906296,-0.4586189306792834,-14.97034922650638,-36.61604938753268,-6.203124640391954,1020.147033691406,0.002734075860434881,-0.009088204306409036,0.004040048629089143,-59.21098327636719,0.4928843071894106,-0.3947048435334002,-0.004980561075433151,-0.7754020340304627,0.5710131571204001,0.3789971104607203,0.6542252070835511,-2.993472285736966,1.416136498106034,-0.265012465854518,-22.08873176574707,-28.08880424499512,-12.8509693145752,1019.957336425781,-0.03427234234456279,-0.01664596501590963,-0.02825460723502047,-57.58779144287109,0.9116476486401098,0.1289289519000624,-0.3534039802285018,-0.165471002166397,-0.7656938638289075,-0.1326534861119924,0.7740148870879104,-0.8340305136228299,-8.608720919272022,1.155725833864292,39.4422607421875,-10.64126968383789,-11.99184894561768,1019.971817691878,-0.08098271998342881,-0.01493165532843047,0.06284000355081752,-57.71118848760173
1613732335.00305,-0.05868093883312012,0.09110716994045971,-0.6694276955036523,-0.7349302099736497,-0.04949434254281204,0.9782727784194807,0.09463017221640495,-4.127203902757541,-1.003366615796826,-0.7091298548201082,-14.92339706420898,-36.56868743896484,-6.146332740783691,1020.147033691406,0.005668361694692287,-0.01303064130107849,0.01116438358499105,-59.21098327636719,0.4935934356352343,-0.3945770656519749,-0.004359622775757304,-0.775019594874404,0.5770954598860408,0.3727719034592471,0.6483813453976149,-0.6756968139046816,-1.548779490419915,0.4486192551506177,-22.413061355712,-27.92101960841575,-12.84901253455496,1019.956359863281,-0.02816275973518664,-0.0221707113833832,-0.03450415552706822,-57.57685852050781,0.9106275337616584,0.1304735767625922,-0.3545453031452562,-0.1674253585573151,-0.716465999490861,-0.08716433184949168,0.698336395953862,-5.156046199411183,15.33369928423304,2.852652640513579,39.4422607421875,-10.64126968383789,-11.99184894561768,1019.97265625,-0.02938419517603088,0.03134011520666306,-0.01042986937074888,-57.71895599365234
1613732335.02805,-0.05844548465584064,0.09081992976269389,-0.6683294133668557,-0.7359833779953154,-0.06188780023329452,0.9975036418158244,0.06802603157223633,-10.4380308891797,-0.5367173077708746,-0.4629788145748691,-15.25950958420216,-36.90773346168243,-6.552884165862404,1020.147033691406,-0.006512941308555341,0.006482250097494228,-0.01847263078562007,-59.21098327636719,0.4939049770947755,-0.3951476112929833,-0.003714595204461216,-0.7745336696466824,0.5988579723205134,0.402497509638726,0.6493870343729201,-0.1845677240161493,-2.654148063319622,1.979555186131785,-22.81600379943848,-27.71256637573242,-12.84658145904541,1019.956359863281,-0.00753124733991329,0.00774823322868038,-0.03261088440058876,-57.57685852050781,0.9099875324490937,0.1304560104912302,-0.3555036248134439,-0.1688796541552936,-0.6687993771031484,-0.08152139856112564,0.6749434455031409,6.858283086740508,-3.705489214078789,1.040811471034146,38.3489990234375,-11.35486507415771,-11.14576530456543,1019.968444824219,0.01993993952682761,0.03543496575540443,-0.03247482702336475,-57.68070220947266
1613732335.05305,-0.05836439063517548,0.09057473807392806,-0.6669566832054078,-0.7372641032930485,-0.05343791273865588,0.9682744543564852,0.09273055845157716,-7.344805317090483,-1.29339613842689,-0.3238071264923599,-15.29141616821289,-36.93991851806641,-6.591477394104004,1020.142761230469,0.002076053538114003,-0.02239244841142481,0.002489812116719941,-59.17272567749023,0.4942539176874902,-0.3955578898820238,-0.002851773202717406,-0.7741051165036585,0.5984416848978181,0.3996511153650006,0.6674192185787539,-2.191349122582044,-3.226670635257244,1.414766235467883,-22.66552514178402,-27.8661553128146,-12.84659293171183,1019.959838867188,-0.009090476803090733,0.005557264492178781,-0.01394296140148166,-57.60965347290039,0.9109132231509952,0.1281734537636233,-0.35362632474169,-0.1695787790750422,-0.659860978364348,-0.1108852674407391,0.692725828617007,11.15059774292618,-13.42476531428119,-2.055371856270775,38.36439557209292,-11.30810326082707,-11.1640470858954,1019.968352359397,0.02553647635035848,0.002306487616400605,-0.01852344810807144,-57.67999237684888
1613732335.07805,-0.05797585237438655,0.090071451670105,-0.6661525201753522,-0.7380831436787427,-0.05191382739443873,0.9764799231950235,0.1002731734814541,-2.846522550620049,-1.306783921468272,-0.07849115492728728,-14.59087570167657,-37.64643586994822,-6.586704439835258,1020.142761230469,0.003617175202536167,-0.01396456009033746,0.007714115335050251,-59.17272567749023,0.4949342191488393,-0.3957555330388687,-0.001825688887539743,-0.7735724086949765,0.5891426142298495,0.3829394346806935,0.6837262910978958,-2.664159258685386,-2.577389824249377,-0.6092095675805123,-22.4532527923584,-28.08281517028809,-12.84660911560059,1019.95754515408,-0.01928252825364257,-0.01030044307952684,0.002666441385508112,-57.58961495183146,0.911064050963953,0.1279007308379693,-0.3529422769895282,-0.1703949303685516,-0.692493905656358,-0.1176986601462242,0.709572498090016,-1.245617702685118,6.455932595572559,-0.2564915467395795,38.70470809936523,-10.2745189666748,-11.5681324005127,1019.96630859375,-0.008116385196056508,-0.00530746394569325,-0.002778412755564723,-57.66430282592773
1613732335.10305,-0.05766513187700446,0.08967929796624736,-0.6656346344361458,-0.7386222047857557,-0.05007225988211974,0.9964320186101504,0.09204163918277272,-4.141178308986719,-1.294861188833121,-0.4611324356885388,-14.70700197868494,-37.38378278795926,-6.769145604775582,1020.14453125,0.005450201591275157,0.006135172323448802,-0.002032600467805262,-59.18912124633789,0.4958411701093007,-0.3957640365155247,-0.001273254313699583,-0.772988070431078,0.5984448333822798,0.3944606896286588,0.7010369034054342,-1.458908021237514,-1.903755146190967,-1.641846698876782,-22.4532527923584,-28.08281517028809,-12.84660911560059,1019.957336425781,-0.01007527832016309,0.001350165430208852,0.01998680488184811,-57.58779144287109,0.9097116545231053,0.1297794328870047,-0.3552188512301322,-0.1714688516837246,-0.690513200082192,-0.1164434690009989,0.6317137374465386,-0.5803199666001549,9.341745051862503,-0.07471918820694248,38.70224442795507,-10.27449419094879,-11.57426925410011,1019.965942382812,-0.002043030116204796,-0.002523149270393948,-0.07646002329346388,-57.65884017944336
1613732335.12805,-0.05752873881262703,0.08944413888771816,-0.6648074629969229,-0.7394059941451696,-0.05269287950306133,0.9780422221659507,0.08888192105123766,-6.064167778366054,-0.2249976081759585,-0.4975741505622864,-14.9286003112793,-36.94492721557617,-7.039463996887207,1020.14623048103,0.002899005854872399,-0.01202415758670011,-0.007469902486387409,-59.20542324403426,0.4967305447589679,-0.3956849193985854,-0.0009392033916003097,-0.7724579450457076,0.6048487392939816,0.3899562315095788,0.6821178183000209,-0.752208319295989,-0.1667540939349428,-1.574258163406733,-22.4532527923584,-28.08281517028809,-12.84660911560059,1019.956193279065,-0.003459802014183526,-0.00326177338891663,0.0009413749983417548,-57.57804067356203,0.9095710495691661,0.1294607353840238,-0.3553186261206461,-0.172246665566755,-0.6767295196269396,-0.08664915652019255,0.656121274825076,6.566629691989402,-4.643505396638083,-3.102790451777863,38.35382843017578,-10.2709903717041,-12.44215202331543,1019.965942382812,0.01191354454325046,0.02607195586460898,-0.05207546574470145,-57.65884017944336
1613732335.15305,-0.05758861143645747,0.0893832842542991,-0.6640470208142684,-0.740091642757292,-0.05832024246452591,0.9836509759206293,0.09542729631379319,-4.677383619585439,0.03909644292983903,0.07915811467308105,-14.93049462634555,-36.78271589816345,-7.239556956084291,1020.146240234375,-0.002687922959916529,-0.006205738865843553,-0.002960358420842507,-59.20551681518555,0.4975443477266027,-0.39556329381649,-0.0008203635719285298,-0.7719964551915154,0.6012039026744065,0.3887449625882947,0.6796791624304194,-0.1977725533042937,0.5424528041811534,-1.670958291057198,-22.44919648901273,-28.08514780274641,-12.65156766961443,1019.955669355884,-0.00666992053253506,-0.004810604712937473,-0.001689866858964531,-57.57193006033591,0.9100398520410856,0.1290344614640058,-0.3542830416036449,-0.1722239263423656,-0.6779384018145169,-0.1162989879259314,0.6618991090037089,4.297890206064716,-5.846248918055307,-5.624734288458545,38.35382843017578,-10.2709903717041,-12.44215202331543,1019.965586890628,0.009006120828154218,-0.003858498920283969,-0.04798219052708522,-57.65884017944336
1613732335.178051,-0.05773253459923666,0.08939046087821416,-0.6633231776643533,-0.7407284348327141,-0.05723115373047118,0.9844760358213334,0.09747844164716371,-5.307218465053089,0.0319905364892361,-0.1050764542089793,-14.93286514282227,-36.57972717285156,-7.489950180053711,1020.147766668254,-0.00158198863147233,-0.005181361873282381,-0.002821888092131974,-59.21528190334674,0.4983842257806148,-0.3952622703884469,-0.0007693313075781906,-0.7716089049443894,0.6043695780729874,0.3867379688108888,0.6911302684191947,-1.447623554530626,2.277510009476586,-2.102389790797993,-22.44432994753911,-28.08429559020336,-12.41846102266811,1019.955200195312,-0.002784828200074932,-0.007101528334463049,0.009287095871698141,-57.5659294128418,0.9097726522180682,0.1310229892198252,-0.3537645368164034,-0.1731922323599302,-0.6789160390661264,-0.09751436666475544,0.6604922203759421,-11.18662125461471,1.407829267186673,-4.461823741803397,38.72018814086914,-10.99630165100098,-12.00581741333008,1019.965416248699,0.007836302506305709,0.01795804951366718,-0.04908713012836723,-57.65597555555456
1613732335.203051,-0.05767957895766074,0.08929308403144892,-0.6625071098232381,-0.741474206840926,-0.05587062812412097,0.9787425640724394,0.1077236263886062,-4.870030221440399,-1.290481535005672,-0.4401522207339864,-14.93385696579822,-36.76044620106742,-7.705934436395983,1020.14587675283,-6.871978972597468e-05,-0.01067418986163878,0.005231999084258724,-59.20054171119754,0.4993303803749786,-0.3945652171519036,-0.000594701583429371,-0.7713539458515005,0.6146933330679657,0.3862300427549388,0.6941222685014714,-1.813080668449402,3.036707401945404,-1.581510538249344,-22.45148277282715,-27.71855735778809,-12.8509407043457,1019.954835995744,0.008638892372186268,-0.007392186821126908,0.01118093708410876,-57.56359951113776,0.909215056853112,0.1350040078819304,-0.3530172364619361,-0.1745854267689506,-0.675138419838982,-0.1003179573693984,0.6569707538344485,-14.08441635221323,-5.127244492540777,-6.42387621977172,38.72018814086914,-10.99630165100098,-12.00581741333008,1019.965270996094,0.01161475340901593,0.02150181920878869,-0.05155226385889738,-57.65337371826172
1613732335.228051,-0.05761691849686781,0.08916851058742134,-0.6617584390841929,-0.7421623856580859,-0.05719690975093662,0.9863441317653332,0.1069000275420585,-4.692656511375239,-0.805138272518009,-0.1432447183607586,-14.93490982055664,-36.95228576660156,-7.935209274291992,1020.143676757812,-0.001288022034271134,-0.002848447446512373,0.002387841267872782,-59.18365478515625,0.5001969351192476,-0.3937264123596213,-0.0005386001435803931,-0.7712212648353958,0.592651571957902,0.3763141435269985,0.6839491787966721,-0.4828321030031506,5.217533692919002,-1.671698447818983,-22.45148277282715,-27.71855735778809,-12.8509407043457,1019.954345703125,-0.01206389791112804,-0.01706704535185436,-0.0003104602787544477,-57.56046295166016,0.9101594167549004,0.1364849814053357,-0.3496366068853874,-0.1753079616346244,-0.6974456249193932,-0.1044966084383269,0.6910748454538661,0.034213065228756,-20.34737550655888,-8.014109487282907,38.35845184326172,-10.63201522827148,-12.44400405883789,1019.965122147881,-0.01545142838486119,0.02093715740612859,-0.02137756220977739,-57.65337371826172
1613732335.253051,-0.05768113200983113,0.08915643541023172,-0.6609834313742787,-0.7428491222832531,-0.05682457395228749,0.9817418763008919,0.1045481274986426,-4.74951105159619,-0.4779991855879029,-0.436506599187851,-14.77083435208658,-37.11776109747773,-7.934091600958014,1020.143676757812,-0.0009851670133079781,-0.007782620989882947,-0.001375931703024958,-59.18365478515625,0.5008818981023225,-0.3929387035351383,-0.0008470339637891294,-0.7711781132537329,0.5989782151107633,0.3889845810904789,0.6818071858050858,-0.2765615743851543,4.25657622441208,-0.638762033267068,-22.08873176574707,-28.08880424499512,-12.8509693145752,1019.953491210938,-0.004183831451054286,-0.004621695422343313,-0.003686514332633173,-57.55500030517578,0.9119645564177892,0.1363043697283847,-0.3448615630837056,-0.1755336507725712,-0.7114953802626893,-0.1314064854174701,0.7696760302690182,0.002581693306418997,-19.15038599026545,-7.352915324551127,38.35819596166495,-10.63202615100182,-12.42618857670987,1019.964880630846,-0.03692291184141019,-0.004296600738462074,0.05051038660828787,-57.65247625349362
1613732335.278051,-0.05776294688613702,0.08924253742853536,-0.6604642799145161,-0.7432941166897825,-0.05334222966307458,0.9839857035475518,0.1075108577970004,-1.846236212199605,0.1865853631092509,-0.436506599187851,-14.56782913208008,-37.3224983215332,-7.932708740234375,1020.143676757812,0.002828523981625586,-0.004995939890266872,-0.00036199332727849,-59.18365478515625,0.5015882733662111,-0.3921576516698603,-0.000645634971104515,-0.771116813134429,0.6112828424078655,0.372013918375209,0.6879780536919011,-2.599204049794369,3.653859062493653,0.2507545446009973,-22.08873176574707,-28.08880424499512,-12.8509693145752,1019.953491210938,0.009169139519438494,-0.0210551648832926,0.001261324350541505,-57.55500030517578,0.9122152338752367,0.1386189615069905,-0.3427850165019352,-0.1764789571568389,-0.7034179718120784,-0.1389830191628317,0.7490731809724503,-15.30028531490075,-0.6768990796051071,-4.949863411493398,38.35221862792969,-10.63228130340576,-12.01002311706543,1019.962890625,-0.03217394755651937,-0.01122792906651106,0.02685190254118244,-57.63151168823242
1613732335.303051,-0.05774620089715262,0.08933905922468892,-0.6601006220072245,-0.743606775301666,-0.05599106352804398,0.984420451871864,0.1115312936539535,-2.764359699681783,-0.06590159128275315,-0.5586416721343994,-14.87552378615918,-37.31824898073347,-7.552784997944228,1020.143676757812,0.0004476034894718636,-0.004262662122361692,0.002711892497832428,-59.18365478515625,0.5021302635844093,-0.391101398926,0.0002574591861581409,-0.7712998744985821,0.61856102539687,0.363811984970556,0.7213540840523096,-4.289956075991586,3.967519002118676,2.470780494107234,-22.4532527923584,-28.08281517028809,-12.84660911560059,1019.958146761515,0.01702511760431947,-0.02723476090916769,0.03299009883443484,-57.59428537541968,0.9116467109261726,0.1438165161055607,-0.3412775705113251,-0.1781756875359657,-0.6953921350844531,-0.1363708538559233,0.6815140158033408,-24.1075657429009,-10.43320435122819,-7.826047221880491,38.35395605285183,-10.6271066939132,-12.0144205423564,1019.962463378906,-0.02416506806736794,0.003760018984906447,-0.03835887429090337,-57.63151168823242
1613732335.328051,-0.05756621284254516,0.08919049031205185,-0.6594928778969135,-0.7441775821022549,-0.04983293437855713,0.9768193103654124,0.1110478306355815,-4.842679443806916,-0.4134547817473309,-0.6652731292531044,-15.29346466064453,-37.31247711181641,-7.036735534667969,1020.141385396532,0.006793538515096418,-0.01166420564180227,0.0005770204323914186,-59.15979865020152,0.5023626645413414,-0.3897913678955452,0.001918047389021522,-0.7718098789090112,0.669370683897501,0.3518621426495566,0.7952158245841225,-8.51246011130425,4.966789573287537,6.771310422310678,-22.4532527923584,-28.08281517028809,-12.84660911560059,1019.956145386667,0.06778955063316991,-0.03549952270292728,0.1048181021709247,-57.57761403929753,0.9128847250774321,0.1472516809245876,-0.3353077498781805,-0.1803359656533567,-0.7101991416505408,-0.1372827539068106,0.7428113578043971,-10.79515881068767,-33.06149181509398,-2.899328537828302,38.71505737304688,-9.551630973815918,-12.92836856842041,1019.962463378906,-0.04714099921701872,0.01013365320103233,0.01689055940838649,-57.63151168823242
1613732335.353051,-0.05733161731665144,0.08897824547674521,-0.6586804788400875,-0.7449401264762374,-0.05483858766954885,0.9870568131376488,0.1122534667727567,-5.644398551059598,0.03024661490574609,-0.7815016119793337,-15.29639820490985,-37.31589839772197,-7.453203489022555,1020.141052246094,0.002009514138229793,-0.001156728923203805,-0.0004271027535247074,-59.15633010864258,0.5021050979072565,-0.3867007071979893,0.004751530968150341,-0.7735155110773412,0.7026440001287568,0.2805285255528829,0.8472790308043096,-13.45719862610247,12.01806931441568,13.64309353357003,-22.82853507995605,-28.43590927124023,-13.270432472229,1019.9560546875,0.1019708911615429,-0.09687080005847902,0.154525587207554,-57.57685852050781,0.915083954311373,0.1474726013286701,-0.3277653694298767,-0.18287149088733,-0.7088695582413205,-0.1528861451578251,0.7627015590975601,-9.091613524102058,-37.77308066350323,0.2799929179014072,39.08507778940188,-9.553758154320519,-14.18346325648373,1019.962167808884,-0.05727211346538665,-0.003369717592220801,0.02693312069215888,-57.62622098483235
1613732335.378051,-0.0572697065581203,0.08903801942806938,-0.6576692359071787,-0.7458307544952197,-0.05166817773385246,0.9887515826561728,0.1002219336695926,-6.83679098449457,-0.9384501618397123,-1.666385491675868,-15.29977416992188,-37.3198356628418,-7.932480812072754,1020.142614198206,0.00562351550270108,0.0008760902434410393,-0.01509087910075239,-59.17131508672046,0.5007727730515711,-0.3820297473960267,0.008816806283651625,-0.776659415067376,0.7629084841625811,0.2564162139980036,0.8908804696539314,-18.12836855629078,19.20672576888145,25.39145827005427,-22.82853507995605,-28.43590927124023,-13.270432472229,1019.956501712079,0.1626970422347833,-0.1112639503863167,0.188692801557088,-57.58186310036442,0.9174150890254997,0.1501732842277037,-0.3175662898453688,-0.186884042905764,-0.6741439010372694,-0.08688437058057696,0.7669809546714884,-31.76839635437071,-53.09114206597942,-1.977988855344647,39.09710311889648,-9.553827285766602,-14.22425270080566,1019.961075385728,-0.0374914355456579,0.069449166938972,0.01973404609693927,-57.61749398812249
1613732335.403051,-0.05680294894971428,0.08886860141992181,-0.6569018073821811,-0.7465625824405023,-0.05806124614502354,0.9697187513740531,0.1149089290506914,-3.776771913727769,-3.294388324140491,-1.545065548562713,-14.98798942080055,-37.47562706717649,-7.741795713167422,1020.143510833426,-0.0001931363568433047,-0.01787230356380824,-0.002474943218854904,-59.17966919798955,0.4978243796791325,-0.374700046774927,0.01476252317433837,-0.78200289648886,0.8669137578761494,0.2209687672941862,1.014573131467058,-30.29386688888814,31.84858431859895,40.19904741784935,-22.83398628234863,-27.70221900939941,-13.71161079406738,1019.956141228163,0.2682302418124154,-0.1278287403382107,0.3016393460707688,-57.57718664784485,0.9204750579220182,0.1551281785642642,-0.3030137563090698,-0.1919203515589659,-0.6566332667491979,-0.09232970322649151,0.7745727112876142,-42.09389463123177,-79.53133478280637,-1.506090429160023,37.76046277919216,-9.541872263159958,-15.51835389261955,1019.960083007812,-0.04133907537259956,0.07638012016400331,0.01231782202967963,-57.60965347290039
1613732335.428051,-0.0558407810601681,0.08810218402748408,-0.6565174500546496,-0.7470639892468071,-0.04370832102944087,0.973057478729727,0.1350918355162186,-1.354902403339423,-4.510206698053489,-0.9498515915482559,-14.56356430053711,-37.68770217895508,-7.482220649719238,1020.14453125,0.01441002765246906,-0.01436176150604797,0.01643158489537042,-59.18912124633789,0.4930294557897216,-0.3629759009539097,0.02299652070752471,-0.7903309913853732,0.9100508286682424,0.1535335551460424,1.102840727243897,-44.67881543790691,50.86107997163208,62.11308874663643,-22.83398628234863,-27.70221900939941,-13.71161079406738,1019.955688476562,0.3156612245513143,-0.1669467367365277,0.3732794793755124,-57.57139587402344,0.9267541700012787,0.155399819035546,-0.278314060534422,-0.1981695707984081,-0.588237594020606,-0.09221965249509217,0.8548358705531653,-33.250960802795,-127.0121144294932,-3.077800224625636,37.66329956054688,-9.541003227233887,-15.61242485046387,1019.959818245697,-0.01284845550798591,0.08501872035014268,0.06454871907676119,-57.60570134673682
1613732335.453052,-0.05491729367899492,0.08749532507142647,-0.6570038405747852,-0.7467757288550619,-0.06065531210411577,0.9934888557805259,0.1134511515398292,3.054279312383723,-4.481737000263694,-1.825229553182824,-15.08034059467473,-37.42948138779236,-7.798276964331401,1020.145730857135,-0.002335102306773484,0.005951094826707727,-0.004147722846420749,-59.20062997728773,0.4845669196875651,-0.3457249416302366,0.03345712712280061,-0.8027751189482238,0.9303515328077357,0.1696461372036813,1.068966627839022,-56.28839759874058,72.0636739773596,88.85041379390212,-23.5792407989502,-27.31562995910645,-14.57225227355957,1019.953125,0.3449273905731678,-0.1107528367818423,0.3163146706800408,-57.54953384399414,0.9338863150472657,0.1562866577475774,-0.2477842444420963,-0.2049474943577993,-0.553335437804548,-0.2058256476197917,0.9801713427736345,-50.9002948845242,-160.0493415125839,-4.852549402712044,37.33061218261719,-8.453025817871094,-18.71279144287109,1019.959636236577,-0.02825529467478743,-0.01611216932776502,0.1580383421956462,-57.60355052612925
1613732335.478052,-0.05372493702269449,0.08700490273652983,-0.6576158912177211,-0.7463813455343015,-0.09476019026259676,0.9952707399356969,0.08774114667592811,1.324501453438652,-8.687158696777233,-2.389769741262787,-15.29977416992188,-37.3198356628418,-7.932480812072754,1020.146240234375,-0.03574295058859928,0.007599584913001619,-0.02842501835655154,-59.20551681518555,0.4732255359216497,-0.3253469315190558,0.04453360988955894,-0.8174482858847905,0.7717325016976948,0.3814540195696937,0.9297379187478818,-63.8691664794147,76.83742342124044,102.1563129756851,-23.57770340505772,-27.31068713972853,-14.57814836079594,1019.953121442089,0.1996128626831926,0.1471294548465135,0.1514255075954477,-57.54950933203963,0.9409823365050765,0.16020505131771,-0.2082329403763374,-0.2129632197553058,-0.5034682498528407,-0.2413952832038586,1.197688695356543,-56.59099590458469,-184.6354929424143,-7.894206755063188,37.33061218261719,-8.453025817871094,-18.71279144287109,1019.957641601562,-0.04345399817882809,-0.02976830599984537,0.3325360691987057,-57.58779144287109
1613732335.503052,-0.05221388330554353,0.0853520720162146,-0.6578344218958193,-0.7464863864212208,-0.08382816053231985,0.9903664550792979,0.1142992084692031,-1.090482894017095,-10.87891397198657,2.549637445936853,-15.29977416992188,-37.3198356628418,-7.932480812072754,1020.146240234375,-0.02529422253789526,0.002665856798611791,-0.001860920478505743,-59.20551681518555,0.4617076854271557,-0.3044653221330156,0.05675379807222086,-0.8310460490917005,0.6963016357214777,0.3928251545442789,0.8165505063061814,-75.44311820370446,71.23455472627239,99.9948541749098,-23.23638343811035,-26.21332168579102,-15.88715076446533,1019.953092018893,0.1399737129199011,0.2065962843526712,0.01485422908243729,-57.55025834817511,0.9481732384806721,0.1596475388037799,-0.165610727572677,-0.2192043150163251,-0.4254052265927356,-0.2837444617917391,1.317932420469217,-28.80141396397197,-201.9477950039612,-14.19840885489506,34.54387664794922,-8.06578540802002,-23.22219467163086,1019.95764082165,-0.04265505496517841,-0.05437821933506951,0.4301538807528746,-57.58779144287109
1613732335.528052,-0.05138995996469203,0.08355584406999328,-0.6575552823353511,-0.7469928923539123,-0.07675128803346977,0.9940314223848631,0.1201057309583758,-3.255878173871037,-6.866995772082909,2.332022959213181,-15.29977416992188,-37.3198356628418,-7.932480812072754,1020.146240234375,-0.01969669498489823,0.006407131035033159,0.002608392763133205,-59.20551681518555,0.4505711328436444,-0.2835571363731825,0.06984889232499435,-0.8436146369777262,0.5280499793788513,0.3742642827819246,0.7188479303932201,-84.92042919955254,58.56180158969772,98.26526880120022,-23.23638343811035,-26.21332168579102,-15.88715076446533,1019.955651954187,-0.01147886803809336,0.237051855463232,-0.1043928931771752,-57.57109854868852,0.954794250054289,0.1529207740199253,-0.1207740867813177,-0.2240580286604822,-0.3989975011098789,-0.3004612008955687,1.544916383927011,-11.13649722330352,-204.6369056120973,-12.89565309881509,34.54387664794922,-8.06578540802002,-23.22219467163086,1019.957336425781,-0.1009065412563223,-0.06334156931832867,0.6277255486276152,-57.58779144287109
1613732335.553052,-0.05102804194097278,0.08285726227411139,-0.657583092136142,-0.7470711262348734,-0.04627372954456929,0.9718167947784505,0.1392212530519692,2.719954898204385,-0.609286672163218,-0.01600776030500561,-14.94633179676684,-37.14374722143448,-8.151397671076692,1020.143737792969,0.01022528707659875,-0.01582006408592196,0.02156483132535694,-59.18365478515625,0.4397882832685753,-0.2653174952897808,0.08825273547224737,-0.853415028062953,0.5731765436022426,0.3230231719289469,0.7673782139084881,-108.58714519959,30.86645577381557,96.66546954601331,-25.10408973693848,-24.33103370666504,-18.48209762573242,1019.955688476562,0.04455531643698649,0.2405692212082625,-0.06989776656138676,-57.57139587402344,0.9595728913023127,0.1442078829680394,-0.08180373958865075,-0.2273954778289612,-0.3446156361114154,-0.2669200444497616,1.564516118598243,0.5729477226006185,-149.7310303117774,-11.2505459056326,30.37992423365527,-6.632747166177037,-27.95806560887852,1019.955213225954,-0.1227943507472832,-0.02817335855474349,0.6260965502096636,-57.56666634181055
1613732335.578052,-0.05093083579892575,0.08324965146186762,-0.6580274915899295,-0.7466427114414689,-0.07578147001587977,0.9914594695649925,0.1381494379105849,4.629389688048906,2.858493328539269,-1.948549964285485,-14.57209396362305,-36.95729827880859,-8.383194923400879,1020.146932727497,-0.01868696946496921,0.003698949911761628,0.02178825008227361,-59.20919999828004,0.4299251341800444,-0.249293230872166,0.112585968682208,-0.8604184222864592,0.5075414304859506,0.1447488240958033,0.753216966566429,-119.0973028017082,7.916715876312914,92.59627076184537,-25.10408973693848,-24.33103370666504,-18.48209762573242,1019.954580934134,-0.01647074923909464,0.1242060677754692,-0.09086001740475722,-57.56095437204947,0.9624748573688979,0.1341535590306666,-0.05355915257648736,-0.2294611707900249,-0.2752943626929595,-0.2549941537908423,1.332223618989084,27.54211856000659,-140.9158119035621,-8.596848118909062,30.23466873168945,-6.582756996154785,-28.12327194213867,1019.955139160156,-0.1112125809178772,-0.02211805287342404,0.3808031578449816,-57.5659294128418
1613732335.603052,-0.05086885864363107,0.08402975826144463,-0.6581486322082017,-0.7464527205824912,-0.05768248977701377,1.010980028813095,0.1282826451004655,0.4077827483348339,2.58330591850234,-2.802604888327588,-14.89698343221013,-36.95281144969505,-7.982038326709915,1020.147155761719,0.002374300423565714,0.02000675678015961,0.01457417301764237,-59.21098327636719,0.420025985966205,-0.2361220003849248,0.1397533356518331,-0.8649869167025509,0.527158296864127,0.06132588833215168,0.7416822484120573,-117.9284382571994,-4.316546832038188,90.25828194533698,-26.59444618225098,-21.67068099975586,-20.65827560424805,1019.954156534929,0.003104214403023626,0.1045907612750802,-0.1013503704521956,-57.55808305930356,0.9656990615874661,0.1153282304792482,-0.02362423837209977,-0.2313432795155535,-0.2596673057706726,-0.2358642410457673,1.253905937497331,73.22449160068602,-168.6218487829769,-12.77441495357437,25.93591823462943,-6.209424169984865,-31.1344727385638,1019.954855338141,-0.1610218056514787,-0.02476561597314818,0.2883671502626123,-57.5659294128418
1613732335.628052,-0.05060674152141331,0.0848883413436607,-0.6580738696705508,-0.7464393479111232,-0.05620852218378833,0.9786029423747054,0.1236721567175538,1.450606755964403,3.465828618080487,-3.850347495850683,-15.29772567749023,-36.9472770690918,-7.487222671508789,1020.148823179906,0.003812007079885711,-0.009229667775941235,0.008022747771456736,-59.22691360270917,0.4102812637031211,-0.2251072860890287,0.1663294173284656,-0.8679294817795242,0.5128239188090721,0.03842917020878364,0.7392650199769788,-112.5797897795535,-14.39649279315547,84.04590289165519,-26.59444618225098,-21.67068099975586,-20.65827560424805,1019.953674316406,-0.01261821102139037,0.1420860317880888,-0.09778955284338846,-57.55500030517578,0.9680268340546766,0.09148424258434242,0.007808108341167934,-0.2330629810031438,-0.2366002743071504,-0.2611603431478001,1.097461837925726,68.9048514960224,-163.113198560015,-12.74085146018923,25.61249542236328,-6.181335926055908,-31.36102485656738,1019.953801529494,-0.209186854671423,-0.08100435241897697,0.1213587343136356,-57.55536334333933
1613732335.653052,-0.05043682743157785,0.08616699401459019,-0.6582083834561865,-0.7461855069230204,-0.04531396957695479,0.9951375513446044,0.1337360299258236,2.256906152572138,6.501180764800744,-5.019108747172816,-15.29725587606213,-37.10393154529204,-7.486112158133037,1020.1495905083,0.01667346800330385,0.007496285656971002,0.01883511325680649,-59.23202015932357,0.4006189494962787,-0.2154923529722645,0.192850709327033,-0.8693471156252606,0.5255831700138374,-0.04470661627336268,0.8454470097680532,-117.3193966066432,-21.10217295419455,77.65176550372107,-28.81782341003418,-17.96110916137695,-23.27052307128906,1019.952389922057,-0.001764176397114941,0.1173751310594802,0.01908602350824656,-57.54616165702105,0.968626862134399,0.07494053346471559,0.03407589169877624,-0.2344687229111563,-0.250275188189081,-0.2855144138290227,0.9239179702640571,39.96519296899744,-117.9453612188962,-11.98113137723311,22.03579711914062,-7.593833446502686,-34.09489440917969,1019.952697753906,-0.2810429321460233,-0.1248970958373803,-0.05581061382532036,-57.5440673828125
1613732335.678052,-0.05036921665088866,0.08797659551849984,-0.6582442508169963,-0.745947288918947,-0.03265901340891867,0.996257529928298,0.1235991699054221,1.918828813944226,8.140487923715309,-7.213124633194521,-15.2966194152832,-37.31615829467773,-7.484607696533203,1020.150573730469,0.03206323980282239,0.008705420585806922,0.009420363929601772,-59.23830795288086,0.3919734122136924,-0.2060323230159455,0.2193310898887858,-0.8693475858563791,0.5201727943100208,-0.1524334842000198,0.8331381611056892,-109.9969191255608,-20.74873839313157,70.05949797019403,-28.81782341003418,-17.96110916137695,-23.27052307128906,1019.951049804688,-0.008192167185567541,0.06664919328242472,0.02044939430821113,-57.53313827514648,0.967672463461517,0.06455473572956819,0.05411620638144,-0.2376244955503787,-0.1574478075591088,-0.1990467339084369,0.6239238694029104,30.88887508632152,-116.3880972061404,-6.871775595707272,22.03579711914062,-7.593833446502686,-34.09489440917969,1019.950469465924,-0.2283375431804242,-0.05307601021864719,-0.348642272956691,-57.52940875978756
1613732335.703053,-0.05038420429027744,0.09031031371309711,-0.6582142254828458,-0.7456934284565329,-0.06304799704602172,0.986979048437005,0.1162322225674825,1.099624978923381,9.167011520293384,-7.35815137088032,-14.78742407118264,-37.14798236577232,-7.694509244019182,1020.15023272171,0.005081730893869239,-0.0004324313782583415,0.002805233560574601,-59.2357645958891,0.3828914859960105,-0.1979418635897698,0.2419178769889749,-0.8692641258752103,0.4477163875282026,-0.1658262049108236,0.7117048064456574,-89.5889355384011,-18.37228521384449,67.36066549409441,-31.3464527130127,-13.18381118774414,-23.29631423950195,1019.948425292969,-0.07983438690035471,0.1022510026218787,-0.08668429915544749,-57.51127624511719,0.9659360014362482,0.05753218855111143,0.08053120116108861,-0.239106930250674,-0.03677265713799039,-0.1237376397358599,0.3608202553560571,-7.057345793283332,-159.8869114931388,-25.46447726424585,17.39916801452637,-8.637922286987305,-35.04615783691406,1019.948424545894,-0.164404029413808,0.02541358131212123,-0.6129099899351307,-57.5112685996113
1613732335.728053,-0.05063420642678858,0.09314121259824265,-0.6582315464802425,-0.7453132140445587,-0.07001880682944316,1.007089263800068,0.1217956360948237,2.734615816217204,11.48292670635552,-9.042542601981229,-14.20296478271484,-36.95494842529297,-7.935436248779297,1020.149841308594,0.001918382879047408,0.01982016969917162,0.009448166408040526,-59.23284530639648,0.3732353429002184,-0.1906034920206472,0.2610106841552842,-0.8696170940367998,0.4633700012130264,-0.151958317566021,0.7678720240203964,-82.24788145810318,-17.83558945328657,66.88838085378588,-31.38027484992721,-13.07105738661986,-23.2869782576105,1019.948355809835,-0.06314368152347918,0.1539743125342086,-0.0117613147201569,-57.51127624511719,0.9628386879820567,0.05282422903870572,0.1206879035761297,-0.2354378490692839,-0.05058277476450106,-0.2109911387945163,0.7321502727106626,-13.95544103860451,-191.7807745648286,-39.16331220416952,17.39916801452637,-8.637922286987305,-35.04615783691406,1019.9462890625,-0.2573836563859729,-0.05300326778569035,-0.226208026137821,-57.48941421508789
1613732335.753053,-0.05052547875129592,0.09619363256650686,-0.6580622210216557,-0.7450821581179619,-0.07396057461730561,0.9774758325921057,0.1222866053714077,0.5256023143033821,10.11033731328839,-9.494845655998102,-14.92638397216797,-37.68268966674805,-7.034235000610352,1020.151550292969,0.002626690306569418,-0.009525594258820396,0.01064753771104995,-59.24924087524414,0.3641748177097618,-0.1829907653901699,0.2778218944625244,-0.8698630053064432,0.4084759205772965,-0.2434044740514489,0.7148182868764311,-73.82667443323368,-9.881145297225135,54.61807919785115,-32.77252960205078,-8.429658889770508,-22.90267181396484,1019.945495605469,-0.110443498568558,0.1054528691430049,-0.05776893212497717,-57.48395156860352,0.958894156745226,0.04622212535827394,0.1541217379375232,-0.2336981572057376,0.00229288201844971,-0.2183987211581052,0.6101197991047628,6.769792448159123,-139.8770503463636,-17.583089294684,13.22253083886408,-9.298604033677124,-36.37499623938644,1019.945994847136,-0.2707476297124901,-0.05825993995802355,-0.3314963375498053,-57.48941421508789
1613732335.778053,-0.04998914723723184,0.09881127082543316,-0.6576933646544949,-0.7451018126436374,-0.09979309912681718,0.9898852385469958,0.1030713439215073,-3.097640190586838,8.256243401309657,-9.69163153746878,-14.92638397216797,-37.68268966674805,-7.034235000610352,1020.147409391378,-0.01857406228170384,0.003247765779976281,-0.008518719829000949,-59.21268356709973,0.3565982885744056,-0.1762640987715336,0.2927170519700814,-0.8695316154918186,0.3365734206928396,-0.3139709285291946,0.6175156088355028,-60.02469049605448,-14.52010234499525,47.30422441171665,-32.77252960205078,-8.429658889770508,-22.90267181396484,1019.947324582822,-0.1769879078197852,0.06807877158857183,-0.1430222206573746,-57.50032853665455,0.9545851531917888,0.04263133180432386,0.1798785675483638,-0.23347292792028,0.1442281599744335,-0.1539155583510797,0.5935488389483261,-14.31165655259872,-120.8358257789985,-16.40250348967833,13.06693840026855,-9.323216438293457,-36.42449951171875,1019.945983886719,-0.1781652424515358,0.01090261133171816,-0.331427628830048,-57.48941421508789
1613732335.803053,-0.04901204193703168,0.1008816304446474,-0.6568010192242884,-0.7456759037139427,-0.09879554637581364,0.9715764564525968,0.09553142885840678,-5.05593694384786,2.178975024500702,-9.197182300358774,-14.19981002807617,-36.95127105712891,-7.487563133239746,1020.147216796875,-0.01301813387368029,-0.01449651206715554,-0.0175719740238286,-59.21098327636719,0.3487733577250763,-0.1715793128370448,0.305122335670351,-0.8693644972614903,0.3492391452303053,-0.3078600218474561,0.5612130487988192,-46.23081882928172,-12.6646953348556,44.37062177256109,-33.84986114501953,-5.072648048400879,-22.92930030822754,1019.947326660156,-0.1601844694159028,0.1015872809846632,-0.1877571160730787,-57.50034713745117,0.9502988440078811,0.03905496013610609,0.2048185699987541,-0.2311582204464261,0.2785568950805366,-0.2091107775724616,0.7392728685601495,-6.461119417833656,-110.8918849007788,-17.61662909547852,8.407238993593786,-8.614297364597116,-37.36165639893688,1019.944058478849,-0.09140528225370541,-0.04076483727130047,-0.1672817694179044,-57.47420207717344
1613732335.828053,-0.04778265939598374,0.1020357453706933,-0.6559412831267249,-0.7463555132441206,-0.09000450398544974,0.9611797482284578,0.1035097745261179,-4.276526968783733,-0.7543495236345544,-6.853717482496663,-14.19981002807617,-36.95127105712891,-7.487563133239746,1020.148979397094,-0.0006820890821140294,-0.02436734789105228,-0.01137728945161693,-59.22731012064045,0.3421137410827262,-0.1672929302343897,0.3149235358155881,-0.8693635431473045,0.3422138464220176,-0.3286884247784879,0.5894284806129905,-37.38545984286641,-6.53277353372297,34.56121543676264,-33.84986114501953,-5.072648048400879,-22.92930030822754,1019.944721419872,-0.1624334271318994,0.1029500808229337,-0.1503547544320005,-57.47913885326268,0.9462933877528115,0.03273624373984552,0.2224974240150766,-0.2322093666715861,0.3327827669235766,-0.1795716002049157,0.7906593263696035,20.51398602875793,-69.48987543818622,1.679998834308949,8.044736862182617,-8.559146881103516,-37.43456268310547,1019.942851582794,-0.0717360178204646,-0.01482310376527622,-0.101728332873917,-57.46250078260147
1613732335.853053,-0.04704418575549815,0.1027994354099395,-0.65518126971056,-0.7469648085469756,-0.06942047957244663,0.9593761973954059,0.09382883890648662,-4.966339944126028,-0.8317742968045765,-5.55895622789639,-13.41096496582031,-37.69927597045898,-8.378325462341309,1020.149748117886,0.02219971551314152,-0.02575721727082546,-0.02273238559549677,-59.23468258129042,0.336643254172338,-0.1639394400654506,0.3229446039972717,-0.8691913713856069,0.3330570607738809,-0.4061757615461831,0.5656207372693536,-29.81739872081665,-12.47935662572537,27.49171138936779,-33.83393096923828,-1.794318199157715,-22.96828460693359,1019.943473201373,-0.1676653139241538,0.04332368349714927,-0.1661688587797946,-57.46852483488521,0.943706424514855,0.02573142336625291,0.2300170318877992,-0.2363200442177189,0.4358003922203674,-0.1052230713323475,0.6928271723601093,27.73035800473677,-15.77825299629826,17.84173361226046,3.748339653015137,-7.801107883453369,-38.37050628662109,1019.941711425781,0.01524713400534481,0.05152817429984898,-0.1936482679025485,-57.45115661621094
1613732335.878053,-0.04639733662597928,0.1033959928579863,-0.6544805233874412,-0.7475371082777325,-0.08454360959286603,0.9601425515594917,0.09919299767065004,-4.329929552831266,-3.541481069989641,-4.994167219000208,-13.41096496582031,-37.69927597045898,-8.378325462341309,1020.150695800781,0.008992253605631446,-0.02461685129281146,-0.01895258376538594,-59.2437744140625,0.331644795739676,-0.1631149134789288,0.3304879782795268,-0.8684359687905433,0.3719022047348382,-0.4483219520143839,0.5423284953175432,-19.36643577383207,-20.31227396975898,22.91127933471079,-34.49733350991907,0.6283894077987471,-22.16741334411199,1019.942077636719,-0.1289203913975854,0.01592968495659372,-0.1801828899000241,-57.45662307739258,0.9423419341019682,0.01956507623031958,0.2321517858078772,-0.2402274881873274,0.5346462744102338,-0.01729462423670759,0.6223626786813304,22.27916354269264,-13.82733669362716,13.58924357251993,3.748339653015137,-7.801107883453369,-38.37050628662109,1019.943580281924,0.1079558914702846,0.1306198473513637,-0.2626946965367003,-57.46817627326657
1613732335.903053,-0.04539148611548608,0.1033126250478683,-0.6537061684484282,-0.748287351328172,-0.08815009108998409,0.9679133163466592,0.1105543750270663,-6.50005033909599,-4.347628010755141,-2.925551269008419,-13.04183387756348,-37.69692611694336,-7.930567741394043,1020.149270875663,0.00679797447114552,-0.0164547754713871,-0.00964425540490633,-59.23048438981598,0.3269782753022459,-0.1639752391894292,0.3360614723038935,-0.8679036809987977,0.4139318197616244,-0.4381428803080691,0.5788286757656264,-11.81501642362055,-15.90240401544262,17.57964279413314,-34.53258514404297,0.7571263313293457,-22.12485694885254,1019.941223144531,-0.0887630424992548,0.03635708938405476,-0.1357157134467291,-57.45115661621094,0.9408528808823293,0.01171696867748752,0.2370624161830304,-0.241784780062932,0.5495539837783957,-0.07400933436141693,0.7642032113238431,31.38048953778589,-28.12636182131873,3.673276025386684,1.939586836471161,-8.146509590335191,-38.40258925985614,1019.9453125,0.1106234541478693,0.06221381449573685,-0.1167602485921666,-57.48395156860352
1613732335.928053,-0.04473003958505355,0.1029994287812214,-0.6527940991098012,-0.749164494470271,-0.08263390003390819,0.9693001481006793,0.1165278522769745,-7.51094285031386,-3.39597608555679,-2.282557720730792,-13.11374375059112,-37.62704644240792,-8.103555015289555,1020.148106989742,0.01296835394790901,-0.0146832985440393,-0.006172621199049665,-59.21960725269972,0.3241224053329188,-0.1650195807263888,0.3390738971442285,-0.8675952539959518,0.4251731887604732,-0.4554172501868063,0.6048811393399789,-7.770613891459314,-11.99313502576018,12.46869428794159,-34.59848388967038,1.185026928414131,-21.95940139151242,1019.939798274427,-0.07924415482837367,0.024351394951877,-0.10490559504315,-57.4382908773249,0.9409266934973521,0.008420196242861298,0.2341099190423576,-0.2443706677772036,0.5318728515817639,-0.05474127929391823,0.74686046211922,27.81931447417085,-21.89449183297811,1.507179697791134,1.504728729416142,-8.359310902981097,-38.41099673141816,1019.943324710127,0.09686077394231656,0.07504724551140271,-0.1369168618051475,-57.46762182920428
1613732335.953053,-0.04416866988134551,0.1027317504989949,-0.6520041868865849,-0.749920936707734,-0.08931059855252345,0.9777718853885924,0.1254843952211262,-5.329165300476014,-2.112021593777351,-2.209684779976634,-13.22513871980271,-37.51879643631489,-8.371528121599727,1020.148635038553,0.006845461200090556,-0.005875360459566476,0.0006211728011568324,-59.22449853241154,0.3218307323074932,-0.1661943190598428,0.3413262235268412,-0.8673339752648442,0.4418791444471848,-0.4758095617988997,0.6390355288789089,-5.68209934089267,-9.666998096867172,8.785745461034111,-34.69939531365834,1.840275494468169,-21.70603760227867,1019.937616356245,-0.06436801944478923,0.007680856759290023,-0.06690790603181977,-57.41858943962247,0.9410027465260653,0.005130215941713546,0.2311461308023141,-0.2469581326948877,0.5141691287957684,-0.0353246594267814,0.7292380027323359,24.23727206083559,-15.63875241188475,-0.6527870418052095,1.07266580561845,-8.571749441980456,-38.41935553779206,1019.941334300745,0.08309885207648139,0.0880373055178213,-0.1573631752713559,-57.45127057047697
1613732335.978054,-0.04360730017763748,0.1024640722167684,-0.6512142746633686,-0.7506773789451969,-0.09598729707113871,0.9862436226765054,0.134440938165278,-3.147387750638167,-0.8280671019979127,-2.136811839222475,-13.33653368901431,-37.41054643022186,-8.6395012279099,1020.149163087363,0.0007225684522720989,0.002932577624906346,0.007414966801363331,-59.22938981212335,0.3195390592820677,-0.1673690573932967,0.3435785499094538,-0.8670726965337368,0.4585851001338964,-0.496201873410993,0.6731899184178389,-3.593584790326025,-7.340861167974162,5.102796634126629,-34.8003067376463,2.495524060522208,-21.45267381304492,1019.935434438063,-0.04949188406120478,-0.00898968143329695,-0.02891021702048958,-57.39888800192004,0.9410787995547785,0.001840235640565793,0.2281823425622707,-0.2495455976125718,0.4964654060097728,-0.01590803955964456,0.7116155433454517,20.65522964750035,-9.383012990791379,-2.812753781401553,0.6406028818207585,-8.784187980979816,-38.42771434416596,1019.939343891362,0.06933693021064624,0.1010273655242399,-0.1778094887375643,-57.43491931174965
1613732336.003054,-0.04312049325986271,0.1023743724881305,-0.6504757417374998,-0.7513596491887247,-0.1007100321530808,0.9926424269210732,0.1383296728676136,-2.713253123297251,-0.04813121947725049,-2.241180343234146,-13.41522979736328,-37.33407211303711,-8.828813552856445,1020.149536132812,-0.003297383207948269,0.009657375657415451,0.009348382451701512,-59.23284530639648,0.3176424043174744,-0.1683298085020339,0.3452565955681432,-0.8669290953595763,0.4871008450907028,-0.5053490359893623,0.7017628154227825,-1.871465696720482,-4.264640177197871,2.13545739375083,-34.86849975585938,2.938322067260742,-21.28145790100098,1019.933959960938,-0.0223714218517692,-0.01531841362942753,0.002586552978914406,-57.38557434082031,0.9407224879778785,-0.003496582047267276,0.2283639994453229,-0.2507534654335714,0.4453080926845318,-0.1013772414203897,0.8123596690191874,22.85124970457339,-11.32443774391732,-0.3839776293734083,0.831175448139453,-9.528557899525998,-38.02671589015516,1019.936682396218,0.01535498860365195,0.006206534713920395,-0.07691957294318796,-57.40906314301847
1613732336.028054,-0.04288033820648367,0.1025891410163912,-0.649800795460974,-0.7519279365740887,-0.1047307361134878,0.9773383384893095,0.1269036734829467,-3.883951057002829,-0.8993268394237615,-1.277043793222071,-13.41522979736328,-37.33407211303711,-8.828813552856445,1020.151030401908,-0.006511162592447295,-0.00534132833231498,-0.003739289205732509,-59.24718095052862,0.3167709242073561,-0.1687623474119172,0.3457230813419627,-0.8669780796471958,0.4808756161418752,-0.5122937432725259,0.687421052234357,0.2228430335808934,-3.268344154156974,0.2241551646086282,-35.23302459716797,2.94431209564209,-21.27709770202637,1019.935729980469,-0.02905548962949096,-0.02140405388344693,-0.01082238447080104,-57.3999529627615,0.940488616360453,-0.004604124750282622,0.2266098468296261,-0.2531874854484297,0.4503321278716738,-0.09418979663434612,0.8427764754031359,-3.437356712646707,22.01267284292948,9.577578856787067,0.8584365844726562,-9.582529067993164,-37.99424743652344,1019.9365234375,0.02320014450348239,0.01153962270415115,-0.04807213762945379,-57.40743637084961
1613732336.053054,-0.04263311855545266,0.1025079331650292,-0.6491157659284306,-0.7525444565654321,-0.1208339142239112,0.9768628962142347,0.1314829701933456,-4.118219682862065,0.5084149799802387,-0.2776553984137358,-13.46880340576172,-37.69537353515625,-7.930435180664062,1020.151245117188,-0.02223167595379481,-0.005530303844823864,-0.0009667950676524825,-59.24924087524414,0.3164512537488376,-0.1695820688170638,0.3456721185416835,-0.8669551827081265,0.5170901109292451,-0.4953821096888277,0.7225584538070781,0.3110030228589548,-0.6354402687579084,-2.81249081351744,-35.23302459716797,2.94431209564209,-21.27709770202637,1019.935332210026,0.006002541679558314,-0.005005780482084811,0.02479759114023404,-57.39722152500998,0.94146700289213,-0.0003374009715391567,0.2209387901481225,-0.2546086269979717,0.4816964179520354,-0.01961606800472399,0.7617222269098175,-18.13225406651244,37.65085654597264,8.104024819352045,1.600612640380859,-10.31030464172363,-38.41981887817383,1019.936218261719,0.06691504437426787,0.09187737984726047,-0.1342335374276872,-57.40743637084961
1613732336.078054,-0.04260316982505178,0.102741211477495,-0.6485032904526257,-0.7530422780917497,-0.1145972910353906,0.9632748182748406,0.119238052138809,-3.007353885465767,1.807411535354942,-0.9343682454549775,-13.46880340576172,-37.69537353515625,-7.930435180664062,1020.14895472247,-0.01545239132691177,-0.0188568905558063,-0.01470048140974427,-59.2292313445673,0.316717615417799,-0.1694426733755357,0.3453093655067951,-0.8670297418122548,0.5044766520095415,-0.4925331182540267,0.6863428768558039,0.4600661906001547,4.168274474447528,-2.352653209038795,-35.24195162062535,2.949446648468244,-21.7063406395248,1019.934814453125,-0.006349589152067436,-0.002734494561672992,-0.01201138934586608,-57.39104080200195,0.9423038333552342,-0.0002685930106541335,0.2190206413529553,-0.2531628614854837,0.4957454070031252,-0.02321487385946224,0.7970723583361331,5.384712125264112,-1.606204708488342,-7.782931825982437,1.600612640380859,-10.31030464172363,-38.41981887817383,1019.936029151002,0.08423538952977017,0.08680174163429952,-0.1005631482665142,-57.40461349942247
1613732336.103054,-0.0426656974000023,0.1032108585125962,-0.6482746059176825,-0.7531714069215277,-0.1151066407970685,0.9736618278073631,0.1279647191824274,-1.215591239234209,1.325308336760173,-1.028860885512978,-13.04814529418945,-37.70428466796875,-8.826313018798828,1020.150195301479,-0.01529162329934296,-0.008346225743937705,-0.006372041088311147,-59.23899174462314,0.317213720250502,-0.169240343757126,0.3450578496467331,-0.8669880024865576,0.4987244696630951,-0.5050243019961881,0.6617061874405307,2.814125988878038,3.3102793965306,-3.001316565043025,-35.24201965332031,2.949485778808594,-21.7096118927002,1019.933589022141,-0.01091034800206265,-0.01487317234209299,-0.03877394955953134,-57.38208304468814,0.9419717624802215,-0.003890678745806819,0.2218496456108324,-0.2519062187740959,0.4425071712960523,-0.1147427849137243,0.9303741358163653,2.494039509943711,-13.20838173133853,-8.097049820375663,1.234146841552662,-9.947771859710342,-38.42400928391818,1019.935852050781,0.02401086790664556,-0.0106542043257206,0.03525150266720406,-57.40196990966797
1613732336.128054,-0.04264984036217182,0.1035315620675651,-0.6479969016566127,-0.7533670445033785,-0.1152653359066226,0.9809671366302732,0.1342805132936119,-1.219861953812108,0.964319329560828,-1.002791587127745,-13.13859536509078,-37.79540143306838,-8.825636631528845,1020.151736986374,-0.01488428041803381,-0.0009004403720376279,-0.0006412011392651603,-59.25063905128267,0.3176739745891747,-0.1691259957702771,0.3444393752997171,-0.8670871881808426,0.4942317156633436,-0.4927921308619366,0.6720892040521181,3.676603842294538,2.921761601907438,-3.577244758605957,-35.23976033791519,2.948186289191034,-21.60097599789574,1019.931959699258,-0.01381848164352216,-0.000651386609827708,-0.02742184670005017,-57.36796319447692,0.9424744379213447,-0.0008047093366852906,0.2181614122331867,-0.2531907770023273,0.4210734411167394,-0.1079737236346841,0.93154767085948,3.246645772245672,-1.172749889145864,-4.584732322757558,1.647121228343357,-10.08638330634474,-38.41784455167731,1019.9349276489,0.01085012644084467,0.000604452438511616,0.03323751712136024,-57.39369217969744
1613732336.153054,-0.04259789208237989,0.1037594183682341,-0.6476558186920812,-0.7536318346894454,-0.116221567498417,0.9835184459829439,0.1391661322101476,-1.010312953854434,0.3130963353560284,-0.7504355666091771,-13.27566524881728,-37.93348163879167,-8.824611620453375,1020.151094966155,-0.01534749861079511,0.001812695156847997,0.0034577907438639,-59.24447966980436,0.3181067879790038,-0.1689986691104423,0.3437528633142266,-0.867225619628505,0.4879046903057092,-0.4897701523746514,0.6690014618715238,3.247400873032652,1.17218861640696,-3.577244758605957,-35.23645766554092,2.946286692326063,-21.44217180092081,1019.931533909436,-0.02098828236591443,-0.0007126005264781726,-0.03166036783211934,-57.36587889868191,0.9429803108826935,0.002300503648590193,0.2144522616984594,-0.2544816094791177,0.3997864575401658,-0.1009967316921514,0.9321842754448483,4.043453895579527,10.89616162827699,-1.076504314110769,2.062805417420372,-10.2268906252743,-38.41164463956666,1019.934000559239,-0.002116284009678424,0.01209936551358741,0.03066826104872588,-57.38539038149507
1613732336.178054,-0.04254594380258795,0.1039872746689032,-0.6473147357275496,-0.7538966248755122,-0.1171777990902113,0.9860697553356147,0.1440517511266834,-0.8007639538967599,-0.3381266588487711,-0.4980795460906094,-13.41273513254377,-38.07156184451496,-8.823586609377907,1020.150452945936,-0.01581071680355641,0.004525830685733622,0.007556782626992962,-59.23832028832604,0.3185396013688329,-0.1688713424506076,0.343066351328736,-0.8673640510761674,0.4815776649480748,-0.4867481738873663,0.6659137196909295,2.818197903770765,-0.5773843690935188,-3.577244758605957,-35.23315499316665,2.944387095461093,-21.28336760394588,1019.931108119613,-0.02815808308830669,-0.0007738144431286372,-0.0358988889641885,-57.36379460288691,0.9434912003712811,0.003727753804626989,0.2107801443025515,-0.2556953058030415,0.3877273005868626,-0.1029964438840518,0.9071517328419136,8.381077323908649,15.20472449459994,-0.6331198651375254,2.327308654785156,-10.31629657745361,-38.40769958496094,1019.933410644531,-0.006769866575456392,0.01144034794386347,0.002484761532061352,-57.38010787963867
